#
# Results on Thu, 26 Oct 2023 14:56:48 GMT
# USER AGENT: Mozilla/5.0 (Macintosh; Intel Mac OS X 10_15_7) AppleWebKit/537.36 (KHTML, like Gecko) Chrome/118.0.0.0 Safari/537.36
# Design number was non-random = 5
#
# Columns below this comment are as follows:
# 1. Results reception time.
# 2. MD5 hash of participant's IP address.
# 3. Controller name.
# 4. Order number of item.
# 5. Inner element number.
# 6. Label.
# 7. Latin Square Group.
# 8. PennElementType.
# 9. PennElementName.
# 10. Parameter.
# 11. Value.
# 12. EventTime.
# 13. Comments.
1698332208,c63ccbd28db88d171d1d7eefabbc83d9,PennController,1,0,consent,NULL,PennController,0,_Trial_,Start,1698332066535,NULL
1698332208,c63ccbd28db88d171d1d7eefabbc83d9,PennController,1,0,consent,NULL,PennController,0,_Trial_,End,1698332070471,NULL
1698332208,c63ccbd28db88d171d1d7eefabbc83d9,PennController,2,0,instructions,NULL,PennController,1,_Trial_,Start,1698332070474,NULL
1698332208,c63ccbd28db88d171d1d7eefabbc83d9,PennController,2,0,instructions,NULL,PennController,1,_Trial_,End,1698332072721,NULL
1698332208,c63ccbd28db88d171d1d7eefabbc83d9,PennController,3,0,practice-trial-1,NULL,PennController,2,_Trial_,Start,1698332072723,NULL
# 13. Reading time.
# 14. Newline?.
# 15. Sentence (or sentence MD5).
# 16. Comments.
1698332208,c63ccbd28db88d171d1d7eefabbc83d9,PennController,3,0,practice-trial-1,NULL,Controller-DashedSentence,DashedSentence,1,This,1698332098270,754,false,This is a practice trial to help you understand the task.,Any addtional parameters were appended as additional columns
1698332208,c63ccbd28db88d171d1d7eefabbc83d9,PennController,3,0,practice-trial-1,NULL,Controller-DashedSentence,DashedSentence,2,is,1698332098270,521,false,This is a practice trial to help you understand the task.,Any addtional parameters were appended as additional columns
1698332208,c63ccbd28db88d171d1d7eefabbc83d9,PennController,3,0,practice-trial-1,NULL,Controller-DashedSentence,DashedSentence,3,a,1698332098270,378,false,This is a practice trial to help you understand the task.,Any addtional parameters were appended as additional columns
1698332208,c63ccbd28db88d171d1d7eefabbc83d9,PennController,3,0,practice-trial-1,NULL,Controller-DashedSentence,DashedSentence,4,practice,1698332098270,337,false,This is a practice trial to help you understand the task.,Any addtional parameters were appended as additional columns
1698332208,c63ccbd28db88d171d1d7eefabbc83d9,PennController,3,0,practice-trial-1,NULL,Controller-DashedSentence,DashedSentence,5,trial,1698332098270,320,false,This is a practice trial to help you understand the task.,Any addtional parameters were appended as additional columns
1698332208,c63ccbd28db88d171d1d7eefabbc83d9,PennController,3,0,practice-trial-1,NULL,Controller-DashedSentence,DashedSentence,6,to,1698332098270,264,false,This is a practice trial to help you understand the task.,Any addtional parameters were appended as additional columns
1698332208,c63ccbd28db88d171d1d7eefabbc83d9,PennController,3,0,practice-trial-1,NULL,Controller-DashedSentence,DashedSentence,7,help,1698332098270,345,false,This is a practice trial to help you understand the task.,Any addtional parameters were appended as additional columns
1698332208,c63ccbd28db88d171d1d7eefabbc83d9,PennController,3,0,practice-trial-1,NULL,Controller-DashedSentence,DashedSentence,8,you,1698332098270,224,false,This is a practice trial to help you understand the task.,Any addtional parameters were appended as additional columns
1698332208,c63ccbd28db88d171d1d7eefabbc83d9,PennController,3,0,practice-trial-1,NULL,Controller-DashedSentence,DashedSentence,9,understand,1698332098270,225,false,This is a practice trial to help you understand the task.,Any addtional parameters were appended as additional columns
1698332208,c63ccbd28db88d171d1d7eefabbc83d9,PennController,3,0,practice-trial-1,NULL,Controller-DashedSentence,DashedSentence,10,the,1698332098270,289,false,This is a practice trial to help you understand the task.,Any addtional parameters were appended as additional columns
1698332208,c63ccbd28db88d171d1d7eefabbc83d9,PennController,3,0,practice-trial-1,NULL,Controller-DashedSentence,DashedSentence,11,task.,1698332098270,240,false,This is a practice trial to help you understand the task.,Any addtional parameters were appended as additional columns
# 13. Comments.
1698332208,c63ccbd28db88d171d1d7eefabbc83d9,PennController,3,0,practice-trial-1,NULL,Scale,exeval,Choice,3,1698332100409,NULL
1698332208,c63ccbd28db88d171d1d7eefabbc83d9,PennController,3,0,practice-trial-1,NULL,PennController,2,_Trial_,End,1698332102867,NULL
1698332208,c63ccbd28db88d171d1d7eefabbc83d9,PennController,4,0,practice-trial-2,NULL,PennController,3,_Trial_,Start,1698332102871,NULL
# 13. Reading time.
# 14. Newline?.
# 15. Sentence (or sentence MD5).
# 16. Comments.
1698332208,c63ccbd28db88d171d1d7eefabbc83d9,PennController,4,0,practice-trial-2,NULL,Controller-DashedSentence,DashedSentence,1,I,1698332105457,265,false,I believe that you are a wonderful person!,Any addtional parameters were appended as additional columns
1698332208,c63ccbd28db88d171d1d7eefabbc83d9,PennController,4,0,practice-trial-2,NULL,Controller-DashedSentence,DashedSentence,2,believe,1698332105457,194,false,I believe that you are a wonderful person!,Any addtional parameters were appended as additional columns
1698332208,c63ccbd28db88d171d1d7eefabbc83d9,PennController,4,0,practice-trial-2,NULL,Controller-DashedSentence,DashedSentence,3,that,1698332105457,400,false,I believe that you are a wonderful person!,Any addtional parameters were appended as additional columns
1698332208,c63ccbd28db88d171d1d7eefabbc83d9,PennController,4,0,practice-trial-2,NULL,Controller-DashedSentence,DashedSentence,4,you,1698332105457,231,false,I believe that you are a wonderful person!,Any addtional parameters were appended as additional columns
1698332208,c63ccbd28db88d171d1d7eefabbc83d9,PennController,4,0,practice-trial-2,NULL,Controller-DashedSentence,DashedSentence,5,are,1698332105457,222,false,I believe that you are a wonderful person!,Any addtional parameters were appended as additional columns
1698332208,c63ccbd28db88d171d1d7eefabbc83d9,PennController,4,0,practice-trial-2,NULL,Controller-DashedSentence,DashedSentence,6,a,1698332105457,217,false,I believe that you are a wonderful person!,Any addtional parameters were appended as additional columns
1698332208,c63ccbd28db88d171d1d7eefabbc83d9,PennController,4,0,practice-trial-2,NULL,Controller-DashedSentence,DashedSentence,7,wonderful,1698332105457,241,false,I believe that you are a wonderful person!,Any addtional parameters were appended as additional columns
1698332208,c63ccbd28db88d171d1d7eefabbc83d9,PennController,4,0,practice-trial-2,NULL,Controller-DashedSentence,DashedSentence,8,person!,1698332105457,270,false,I believe that you are a wonderful person!,Any addtional parameters were appended as additional columns
# 13. Comments.
1698332208,c63ccbd28db88d171d1d7eefabbc83d9,PennController,4,0,practice-trial-2,NULL,Scale,exeval2,Choice,4,1698332108184,NULL
1698332208,c63ccbd28db88d171d1d7eefabbc83d9,PennController,4,0,practice-trial-2,NULL,PennController,3,_Trial_,End,1698332108789,NULL
1698332208,c63ccbd28db88d171d1d7eefabbc83d9,PennController,5,0,pre-experiment,NULL,PennController,4,_Trial_,Start,1698332108792,NULL
1698332208,c63ccbd28db88d171d1d7eefabbc83d9,PennController,5,0,pre-experiment,NULL,PennController,4,_Trial_,End,1698332110533,NULL
1698332208,c63ccbd28db88d171d1d7eefabbc83d9,PennController,14,0,experimental-trials,NULL,PennController,14,_Trial_,Start,1698332110535,NULL
# 13. Reading time.
# 14. Newline?.
# 15. Sentence (or sentence MD5).
# 16. Comments.
1698332208,c63ccbd28db88d171d1d7eefabbc83d9,PennController,14,0,experimental-trials,NULL,Controller-DashedSentence,DashedSentence,1,The,1698332114298,319,false,The chef received a prize because she was exceptional in the kitchen.,Any addtional parameters were appended as additional columns
1698332208,c63ccbd28db88d171d1d7eefabbc83d9,PennController,14,0,experimental-trials,NULL,Controller-DashedSentence,DashedSentence,2,chef,1698332114298,245,false,The chef received a prize because she was exceptional in the kitchen.,Any addtional parameters were appended as additional columns
1698332208,c63ccbd28db88d171d1d7eefabbc83d9,PennController,14,0,experimental-trials,NULL,Controller-DashedSentence,DashedSentence,3,received,1698332114298,296,false,The chef received a prize because she was exceptional in the kitchen.,Any addtional parameters were appended as additional columns
1698332208,c63ccbd28db88d171d1d7eefabbc83d9,PennController,14,0,experimental-trials,NULL,Controller-DashedSentence,DashedSentence,4,a,1698332114298,302,false,The chef received a prize because she was exceptional in the kitchen.,Any addtional parameters were appended as additional columns
1698332208,c63ccbd28db88d171d1d7eefabbc83d9,PennController,14,0,experimental-trials,NULL,Controller-DashedSentence,DashedSentence,5,prize,1698332114298,274,false,The chef received a prize because she was exceptional in the kitchen.,Any addtional parameters were appended as additional columns
1698332208,c63ccbd28db88d171d1d7eefabbc83d9,PennController,14,0,experimental-trials,NULL,Controller-DashedSentence,DashedSentence,6,because,1698332114298,310,false,The chef received a prize because she was exceptional in the kitchen.,Any addtional parameters were appended as additional columns
1698332208,c63ccbd28db88d171d1d7eefabbc83d9,PennController,14,0,experimental-trials,NULL,Controller-DashedSentence,DashedSentence,7,she,1698332114298,252,false,The chef received a prize because she was exceptional in the kitchen.,Any addtional parameters were appended as additional columns
1698332208,c63ccbd28db88d171d1d7eefabbc83d9,PennController,14,0,experimental-trials,NULL,Controller-DashedSentence,DashedSentence,8,was,1698332114298,261,false,The chef received a prize because she was exceptional in the kitchen.,Any addtional parameters were appended as additional columns
1698332208,c63ccbd28db88d171d1d7eefabbc83d9,PennController,14,0,experimental-trials,NULL,Controller-DashedSentence,DashedSentence,9,exceptional,1698332114298,246,false,The chef received a prize because she was exceptional in the kitchen.,Any addtional parameters were appended as additional columns
1698332208,c63ccbd28db88d171d1d7eefabbc83d9,PennController,14,0,experimental-trials,NULL,Controller-DashedSentence,DashedSentence,10,in,1698332114298,243,false,The chef received a prize because she was exceptional in the kitchen.,Any addtional parameters were appended as additional columns
1698332208,c63ccbd28db88d171d1d7eefabbc83d9,PennController,14,0,experimental-trials,NULL,Controller-DashedSentence,DashedSentence,11,the,1698332114298,267,false,The chef received a prize because she was exceptional in the kitchen.,Any addtional parameters were appended as additional columns
1698332208,c63ccbd28db88d171d1d7eefabbc83d9,PennController,14,0,experimental-trials,NULL,Controller-DashedSentence,DashedSentence,12,kitchen.,1698332114298,253,false,The chef received a prize because she was exceptional in the kitchen.,Any addtional parameters were appended as additional columns
# 13. Comments.
1698332208,c63ccbd28db88d171d1d7eefabbc83d9,PennController,14,0,experimental-trials,NULL,Scale,exeval3,Choice,3,1698332116986,NULL
1698332208,c63ccbd28db88d171d1d7eefabbc83d9,PennController,14,0,experimental-trials,NULL,Button,Continue2,Click,Click,1698332117459,NULL
1698332208,c63ccbd28db88d171d1d7eefabbc83d9,PennController,14,0,experimental-trials,NULL,PennController,14,_Trial_,End,1698332117461,NULL
1698332208,c63ccbd28db88d171d1d7eefabbc83d9,PennController,8,0,experimental-trials,NULL,PennController,8,_Trial_,Start,1698332117463,NULL
# 13. Reading time.
# 14. Newline?.
# 15. Sentence (or sentence MD5).
# 16. Comments.
1698332208,c63ccbd28db88d171d1d7eefabbc83d9,PennController,8,0,experimental-trials,NULL,Controller-DashedSentence,DashedSentence,1,I'm,1698332121494,224,false,I'm reading a book on anti-gravity that's impossible to put down.,Any addtional parameters were appended as additional columns
1698332208,c63ccbd28db88d171d1d7eefabbc83d9,PennController,8,0,experimental-trials,NULL,Controller-DashedSentence,DashedSentence,2,reading,1698332121494,520,false,I'm reading a book on anti-gravity that's impossible to put down.,Any addtional parameters were appended as additional columns
1698332208,c63ccbd28db88d171d1d7eefabbc83d9,PennController,8,0,experimental-trials,NULL,Controller-DashedSentence,DashedSentence,3,a,1698332121494,268,false,I'm reading a book on anti-gravity that's impossible to put down.,Any addtional parameters were appended as additional columns
1698332208,c63ccbd28db88d171d1d7eefabbc83d9,PennController,8,0,experimental-trials,NULL,Controller-DashedSentence,DashedSentence,4,book,1698332121494,433,false,I'm reading a book on anti-gravity that's impossible to put down.,Any addtional parameters were appended as additional columns
1698332208,c63ccbd28db88d171d1d7eefabbc83d9,PennController,8,0,experimental-trials,NULL,Controller-DashedSentence,DashedSentence,5,on,1698332121494,252,false,I'm reading a book on anti-gravity that's impossible to put down.,Any addtional parameters were appended as additional columns
1698332208,c63ccbd28db88d171d1d7eefabbc83d9,PennController,8,0,experimental-trials,NULL,Controller-DashedSentence,DashedSentence,6,anti-gravity,1698332121494,287,false,I'm reading a book on anti-gravity that's impossible to put down.,Any addtional parameters were appended as additional columns
1698332208,c63ccbd28db88d171d1d7eefabbc83d9,PennController,8,0,experimental-trials,NULL,Controller-DashedSentence,DashedSentence,7,that's,1698332121494,323,false,I'm reading a book on anti-gravity that's impossible to put down.,Any addtional parameters were appended as additional columns
1698332208,c63ccbd28db88d171d1d7eefabbc83d9,PennController,8,0,experimental-trials,NULL,Controller-DashedSentence,DashedSentence,8,impossible,1698332121494,356,false,I'm reading a book on anti-gravity that's impossible to put down.,Any addtional parameters were appended as additional columns
1698332208,c63ccbd28db88d171d1d7eefabbc83d9,PennController,8,0,experimental-trials,NULL,Controller-DashedSentence,DashedSentence,9,to,1698332121494,278,false,I'm reading a book on anti-gravity that's impossible to put down.,Any addtional parameters were appended as additional columns
1698332208,c63ccbd28db88d171d1d7eefabbc83d9,PennController,8,0,experimental-trials,NULL,Controller-DashedSentence,DashedSentence,10,put,1698332121494,290,false,I'm reading a book on anti-gravity that's impossible to put down.,Any addtional parameters were appended as additional columns
1698332208,c63ccbd28db88d171d1d7eefabbc83d9,PennController,8,0,experimental-trials,NULL,Controller-DashedSentence,DashedSentence,11,down.,1698332121494,353,false,I'm reading a book on anti-gravity that's impossible to put down.,Any addtional parameters were appended as additional columns
# 13. Comments.
1698332208,c63ccbd28db88d171d1d7eefabbc83d9,PennController,8,0,experimental-trials,NULL,Scale,exeval3,Choice,4,1698332124167,NULL
1698332208,c63ccbd28db88d171d1d7eefabbc83d9,PennController,8,0,experimental-trials,NULL,Button,Continue2,Click,Click,1698332124997,NULL
1698332208,c63ccbd28db88d171d1d7eefabbc83d9,PennController,8,0,experimental-trials,NULL,PennController,8,_Trial_,End,1698332124999,NULL
1698332208,c63ccbd28db88d171d1d7eefabbc83d9,PennController,15,0,experimental-trials,NULL,PennController,15,_Trial_,Start,1698332125002,NULL
# 13. Reading time.
# 14. Newline?.
# 15. Sentence (or sentence MD5).
# 16. Comments.
1698332208,c63ccbd28db88d171d1d7eefabbc83d9,PennController,15,0,experimental-trials,NULL,Controller-DashedSentence,DashedSentence,1,Mortal,1698332130602,504,false,Mortal enemies have very little in relation and it's scary that they'll always fight.,Any addtional parameters were appended as additional columns
1698332208,c63ccbd28db88d171d1d7eefabbc83d9,PennController,15,0,experimental-trials,NULL,Controller-DashedSentence,DashedSentence,2,enemies,1698332130602,390,false,Mortal enemies have very little in relation and it's scary that they'll always fight.,Any addtional parameters were appended as additional columns
1698332208,c63ccbd28db88d171d1d7eefabbc83d9,PennController,15,0,experimental-trials,NULL,Controller-DashedSentence,DashedSentence,3,have,1698332130602,288,false,Mortal enemies have very little in relation and it's scary that they'll always fight.,Any addtional parameters were appended as additional columns
1698332208,c63ccbd28db88d171d1d7eefabbc83d9,PennController,15,0,experimental-trials,NULL,Controller-DashedSentence,DashedSentence,4,very,1698332130602,330,false,Mortal enemies have very little in relation and it's scary that they'll always fight.,Any addtional parameters were appended as additional columns
1698332208,c63ccbd28db88d171d1d7eefabbc83d9,PennController,15,0,experimental-trials,NULL,Controller-DashedSentence,DashedSentence,5,little,1698332130602,342,false,Mortal enemies have very little in relation and it's scary that they'll always fight.,Any addtional parameters were appended as additional columns
1698332208,c63ccbd28db88d171d1d7eefabbc83d9,PennController,15,0,experimental-trials,NULL,Controller-DashedSentence,DashedSentence,6,in,1698332130602,350,false,Mortal enemies have very little in relation and it's scary that they'll always fight.,Any addtional parameters were appended as additional columns
1698332208,c63ccbd28db88d171d1d7eefabbc83d9,PennController,15,0,experimental-trials,NULL,Controller-DashedSentence,DashedSentence,7,relation,1698332130602,368,false,Mortal enemies have very little in relation and it's scary that they'll always fight.,Any addtional parameters were appended as additional columns
1698332208,c63ccbd28db88d171d1d7eefabbc83d9,PennController,15,0,experimental-trials,NULL,Controller-DashedSentence,DashedSentence,8,and,1698332130602,344,false,Mortal enemies have very little in relation and it's scary that they'll always fight.,Any addtional parameters were appended as additional columns
1698332208,c63ccbd28db88d171d1d7eefabbc83d9,PennController,15,0,experimental-trials,NULL,Controller-DashedSentence,DashedSentence,9,it's,1698332130602,397,false,Mortal enemies have very little in relation and it's scary that they'll always fight.,Any addtional parameters were appended as additional columns
1698332208,c63ccbd28db88d171d1d7eefabbc83d9,PennController,15,0,experimental-trials,NULL,Controller-DashedSentence,DashedSentence,10,scary,1698332130602,335,false,Mortal enemies have very little in relation and it's scary that they'll always fight.,Any addtional parameters were appended as additional columns
1698332208,c63ccbd28db88d171d1d7eefabbc83d9,PennController,15,0,experimental-trials,NULL,Controller-DashedSentence,DashedSentence,11,that,1698332130602,315,false,Mortal enemies have very little in relation and it's scary that they'll always fight.,Any addtional parameters were appended as additional columns
1698332208,c63ccbd28db88d171d1d7eefabbc83d9,PennController,15,0,experimental-trials,NULL,Controller-DashedSentence,DashedSentence,12,they'll,1698332130602,305,false,Mortal enemies have very little in relation and it's scary that they'll always fight.,Any addtional parameters were appended as additional columns
1698332208,c63ccbd28db88d171d1d7eefabbc83d9,PennController,15,0,experimental-trials,NULL,Controller-DashedSentence,DashedSentence,13,always,1698332130602,341,false,Mortal enemies have very little in relation and it's scary that they'll always fight.,Any addtional parameters were appended as additional columns
1698332208,c63ccbd28db88d171d1d7eefabbc83d9,PennController,15,0,experimental-trials,NULL,Controller-DashedSentence,DashedSentence,14,fight.,1698332130602,348,false,Mortal enemies have very little in relation and it's scary that they'll always fight.,Any addtional parameters were appended as additional columns
# 13. Comments.
1698332208,c63ccbd28db88d171d1d7eefabbc83d9,PennController,15,0,experimental-trials,NULL,Scale,exeval3,Choice,1,1698332133106,NULL
1698332208,c63ccbd28db88d171d1d7eefabbc83d9,PennController,15,0,experimental-trials,NULL,Button,Continue2,Click,Click,1698332133765,NULL
1698332208,c63ccbd28db88d171d1d7eefabbc83d9,PennController,15,0,experimental-trials,NULL,PennController,15,_Trial_,End,1698332133767,NULL
1698332208,c63ccbd28db88d171d1d7eefabbc83d9,PennController,10,0,experimental-trials,NULL,PennController,10,_Trial_,Start,1698332133769,NULL
# 13. Reading time.
# 14. Newline?.
# 15. Sentence (or sentence MD5).
# 16. Comments.
1698332208,c63ccbd28db88d171d1d7eefabbc83d9,PennController,10,0,experimental-trials,NULL,Controller-DashedSentence,DashedSentence,1,Parallel,1698332139160,295,false,Parallel lines have so much in common and it's a shame that they'll never meet.,Any addtional parameters were appended as additional columns
1698332208,c63ccbd28db88d171d1d7eefabbc83d9,PennController,10,0,experimental-trials,NULL,Controller-DashedSentence,DashedSentence,2,lines,1698332139160,352,false,Parallel lines have so much in common and it's a shame that they'll never meet.,Any addtional parameters were appended as additional columns
1698332208,c63ccbd28db88d171d1d7eefabbc83d9,PennController,10,0,experimental-trials,NULL,Controller-DashedSentence,DashedSentence,3,have,1698332139160,264,false,Parallel lines have so much in common and it's a shame that they'll never meet.,Any addtional parameters were appended as additional columns
1698332208,c63ccbd28db88d171d1d7eefabbc83d9,PennController,10,0,experimental-trials,NULL,Controller-DashedSentence,DashedSentence,4,so,1698332139160,350,false,Parallel lines have so much in common and it's a shame that they'll never meet.,Any addtional parameters were appended as additional columns
1698332208,c63ccbd28db88d171d1d7eefabbc83d9,PennController,10,0,experimental-trials,NULL,Controller-DashedSentence,DashedSentence,5,much,1698332139160,260,false,Parallel lines have so much in common and it's a shame that they'll never meet.,Any addtional parameters were appended as additional columns
1698332208,c63ccbd28db88d171d1d7eefabbc83d9,PennController,10,0,experimental-trials,NULL,Controller-DashedSentence,DashedSentence,6,in,1698332139160,310,false,Parallel lines have so much in common and it's a shame that they'll never meet.,Any addtional parameters were appended as additional columns
1698332208,c63ccbd28db88d171d1d7eefabbc83d9,PennController,10,0,experimental-trials,NULL,Controller-DashedSentence,DashedSentence,7,common,1698332139160,292,false,Parallel lines have so much in common and it's a shame that they'll never meet.,Any addtional parameters were appended as additional columns
1698332208,c63ccbd28db88d171d1d7eefabbc83d9,PennController,10,0,experimental-trials,NULL,Controller-DashedSentence,DashedSentence,8,and,1698332139160,316,false,Parallel lines have so much in common and it's a shame that they'll never meet.,Any addtional parameters were appended as additional columns
1698332208,c63ccbd28db88d171d1d7eefabbc83d9,PennController,10,0,experimental-trials,NULL,Controller-DashedSentence,DashedSentence,9,it's,1698332139160,318,false,Parallel lines have so much in common and it's a shame that they'll never meet.,Any addtional parameters were appended as additional columns
1698332208,c63ccbd28db88d171d1d7eefabbc83d9,PennController,10,0,experimental-trials,NULL,Controller-DashedSentence,DashedSentence,10,a,1698332139160,329,false,Parallel lines have so much in common and it's a shame that they'll never meet.,Any addtional parameters were appended as additional columns
1698332208,c63ccbd28db88d171d1d7eefabbc83d9,PennController,10,0,experimental-trials,NULL,Controller-DashedSentence,DashedSentence,11,shame,1698332139160,306,false,Parallel lines have so much in common and it's a shame that they'll never meet.,Any addtional parameters were appended as additional columns
1698332208,c63ccbd28db88d171d1d7eefabbc83d9,PennController,10,0,experimental-trials,NULL,Controller-DashedSentence,DashedSentence,12,that,1698332139160,295,false,Parallel lines have so much in common and it's a shame that they'll never meet.,Any addtional parameters were appended as additional columns
1698332208,c63ccbd28db88d171d1d7eefabbc83d9,PennController,10,0,experimental-trials,NULL,Controller-DashedSentence,DashedSentence,13,they'll,1698332139160,298,false,Parallel lines have so much in common and it's a shame that they'll never meet.,Any addtional parameters were appended as additional columns
1698332208,c63ccbd28db88d171d1d7eefabbc83d9,PennController,10,0,experimental-trials,NULL,Controller-DashedSentence,DashedSentence,14,never,1698332139160,350,false,Parallel lines have so much in common and it's a shame that they'll never meet.,Any addtional parameters were appended as additional columns
1698332208,c63ccbd28db88d171d1d7eefabbc83d9,PennController,10,0,experimental-trials,NULL,Controller-DashedSentence,DashedSentence,15,meet.,1698332139160,307,false,Parallel lines have so much in common and it's a shame that they'll never meet.,Any addtional parameters were appended as additional columns
# 13. Comments.
1698332208,c63ccbd28db88d171d1d7eefabbc83d9,PennController,10,0,experimental-trials,NULL,Scale,exeval3,Choice,3,1698332142194,NULL
1698332208,c63ccbd28db88d171d1d7eefabbc83d9,PennController,10,0,experimental-trials,NULL,Button,Continue2,Click,Click,1698332142686,NULL
1698332208,c63ccbd28db88d171d1d7eefabbc83d9,PennController,10,0,experimental-trials,NULL,PennController,10,_Trial_,End,1698332142688,NULL
1698332208,c63ccbd28db88d171d1d7eefabbc83d9,PennController,17,0,experimental-trials,NULL,PennController,17,_Trial_,Start,1698332142690,NULL
# 13. Reading time.
# 14. Newline?.
# 15. Sentence (or sentence MD5).
# 16. Comments.
1698332208,c63ccbd28db88d171d1d7eefabbc83d9,PennController,17,0,experimental-trials,NULL,Controller-DashedSentence,DashedSentence,1,How,1698332145601,272,false,How quickly did the lion cross the savannah?,Any addtional parameters were appended as additional columns
1698332208,c63ccbd28db88d171d1d7eefabbc83d9,PennController,17,0,experimental-trials,NULL,Controller-DashedSentence,DashedSentence,2,quickly,1698332145601,207,false,How quickly did the lion cross the savannah?,Any addtional parameters were appended as additional columns
1698332208,c63ccbd28db88d171d1d7eefabbc83d9,PennController,17,0,experimental-trials,NULL,Controller-DashedSentence,DashedSentence,3,did,1698332145601,287,false,How quickly did the lion cross the savannah?,Any addtional parameters were appended as additional columns
1698332208,c63ccbd28db88d171d1d7eefabbc83d9,PennController,17,0,experimental-trials,NULL,Controller-DashedSentence,DashedSentence,4,the,1698332145601,243,false,How quickly did the lion cross the savannah?,Any addtional parameters were appended as additional columns
1698332208,c63ccbd28db88d171d1d7eefabbc83d9,PennController,17,0,experimental-trials,NULL,Controller-DashedSentence,DashedSentence,5,lion,1698332145601,243,false,How quickly did the lion cross the savannah?,Any addtional parameters were appended as additional columns
1698332208,c63ccbd28db88d171d1d7eefabbc83d9,PennController,17,0,experimental-trials,NULL,Controller-DashedSentence,DashedSentence,6,cross,1698332145601,242,false,How quickly did the lion cross the savannah?,Any addtional parameters were appended as additional columns
1698332208,c63ccbd28db88d171d1d7eefabbc83d9,PennController,17,0,experimental-trials,NULL,Controller-DashedSentence,DashedSentence,7,the,1698332145601,267,false,How quickly did the lion cross the savannah?,Any addtional parameters were appended as additional columns
1698332208,c63ccbd28db88d171d1d7eefabbc83d9,PennController,17,0,experimental-trials,NULL,Controller-DashedSentence,DashedSentence,8,savannah?,1698332145601,676,false,How quickly did the lion cross the savannah?,Any addtional parameters were appended as additional columns
# 13. Comments.
1698332208,c63ccbd28db88d171d1d7eefabbc83d9,PennController,17,0,experimental-trials,NULL,Scale,exeval3,Choice,2,1698332147958,NULL
1698332208,c63ccbd28db88d171d1d7eefabbc83d9,PennController,17,0,experimental-trials,NULL,Button,Continue2,Click,Click,1698332148415,NULL
1698332208,c63ccbd28db88d171d1d7eefabbc83d9,PennController,17,0,experimental-trials,NULL,PennController,17,_Trial_,End,1698332148417,NULL
1698332208,c63ccbd28db88d171d1d7eefabbc83d9,PennController,20,0,experimental-trials,NULL,PennController,20,_Trial_,Start,1698332148418,NULL
# 13. Reading time.
# 14. Newline?.
# 15. Sentence (or sentence MD5).
# 16. Comments.
1698332208,c63ccbd28db88d171d1d7eefabbc83d9,PennController,20,0,experimental-trials,NULL,Controller-DashedSentence,DashedSentence,1,Who,1698332153154,294,false,Who all did Vikram call on the phone after the party last night?,Any addtional parameters were appended as additional columns
1698332208,c63ccbd28db88d171d1d7eefabbc83d9,PennController,20,0,experimental-trials,NULL,Controller-DashedSentence,DashedSentence,2,all,1698332153154,244,false,Who all did Vikram call on the phone after the party last night?,Any addtional parameters were appended as additional columns
1698332208,c63ccbd28db88d171d1d7eefabbc83d9,PennController,20,0,experimental-trials,NULL,Controller-DashedSentence,DashedSentence,3,did,1698332153154,319,false,Who all did Vikram call on the phone after the party last night?,Any addtional parameters were appended as additional columns
1698332208,c63ccbd28db88d171d1d7eefabbc83d9,PennController,20,0,experimental-trials,NULL,Controller-DashedSentence,DashedSentence,4,Vikram,1698332153154,439,false,Who all did Vikram call on the phone after the party last night?,Any addtional parameters were appended as additional columns
1698332208,c63ccbd28db88d171d1d7eefabbc83d9,PennController,20,0,experimental-trials,NULL,Controller-DashedSentence,DashedSentence,5,call,1698332153154,267,false,Who all did Vikram call on the phone after the party last night?,Any addtional parameters were appended as additional columns
1698332208,c63ccbd28db88d171d1d7eefabbc83d9,PennController,20,0,experimental-trials,NULL,Controller-DashedSentence,DashedSentence,6,on,1698332153154,373,false,Who all did Vikram call on the phone after the party last night?,Any addtional parameters were appended as additional columns
1698332208,c63ccbd28db88d171d1d7eefabbc83d9,PennController,20,0,experimental-trials,NULL,Controller-DashedSentence,DashedSentence,7,the,1698332153154,306,false,Who all did Vikram call on the phone after the party last night?,Any addtional parameters were appended as additional columns
1698332208,c63ccbd28db88d171d1d7eefabbc83d9,PennController,20,0,experimental-trials,NULL,Controller-DashedSentence,DashedSentence,8,phone,1698332153154,340,false,Who all did Vikram call on the phone after the party last night?,Any addtional parameters were appended as additional columns
1698332208,c63ccbd28db88d171d1d7eefabbc83d9,PennController,20,0,experimental-trials,NULL,Controller-DashedSentence,DashedSentence,9,after,1698332153154,354,false,Who all did Vikram call on the phone after the party last night?,Any addtional parameters were appended as additional columns
1698332208,c63ccbd28db88d171d1d7eefabbc83d9,PennController,20,0,experimental-trials,NULL,Controller-DashedSentence,DashedSentence,10,the,1698332153154,324,false,Who all did Vikram call on the phone after the party last night?,Any addtional parameters were appended as additional columns
1698332208,c63ccbd28db88d171d1d7eefabbc83d9,PennController,20,0,experimental-trials,NULL,Controller-DashedSentence,DashedSentence,11,party,1698332153154,274,false,Who all did Vikram call on the phone after the party last night?,Any addtional parameters were appended as additional columns
1698332208,c63ccbd28db88d171d1d7eefabbc83d9,PennController,20,0,experimental-trials,NULL,Controller-DashedSentence,DashedSentence,12,last,1698332153154,399,false,Who all did Vikram call on the phone after the party last night?,Any addtional parameters were appended as additional columns
1698332208,c63ccbd28db88d171d1d7eefabbc83d9,PennController,20,0,experimental-trials,NULL,Controller-DashedSentence,DashedSentence,13,night?,1698332153154,288,false,Who all did Vikram call on the phone after the party last night?,Any addtional parameters were appended as additional columns
# 13. Comments.
1698332208,c63ccbd28db88d171d1d7eefabbc83d9,PennController,20,0,experimental-trials,NULL,Scale,exeval3,Choice,2,1698332154066,NULL
1698332208,c63ccbd28db88d171d1d7eefabbc83d9,PennController,20,0,experimental-trials,NULL,Button,Continue2,Click,Click,1698332155047,NULL
1698332208,c63ccbd28db88d171d1d7eefabbc83d9,PennController,20,0,experimental-trials,NULL,PennController,20,_Trial_,End,1698332155048,NULL
1698332208,c63ccbd28db88d171d1d7eefabbc83d9,PennController,11,0,experimental-trials,NULL,PennController,11,_Trial_,Start,1698332155049,NULL
# 13. Reading time.
# 14. Newline?.
# 15. Sentence (or sentence MD5).
# 16. Comments.
1698332208,c63ccbd28db88d171d1d7eefabbc83d9,PennController,11,0,experimental-trials,NULL,Controller-DashedSentence,DashedSentence,1,She,1698332158474,217,false,She used to paint landscapes with a brush but now she uses a camera.,Any addtional parameters were appended as additional columns
1698332208,c63ccbd28db88d171d1d7eefabbc83d9,PennController,11,0,experimental-trials,NULL,Controller-DashedSentence,DashedSentence,2,used,1698332158474,147,false,She used to paint landscapes with a brush but now she uses a camera.,Any addtional parameters were appended as additional columns
1698332208,c63ccbd28db88d171d1d7eefabbc83d9,PennController,11,0,experimental-trials,NULL,Controller-DashedSentence,DashedSentence,3,to,1698332158474,178,false,She used to paint landscapes with a brush but now she uses a camera.,Any addtional parameters were appended as additional columns
1698332208,c63ccbd28db88d171d1d7eefabbc83d9,PennController,11,0,experimental-trials,NULL,Controller-DashedSentence,DashedSentence,4,paint,1698332158474,169,false,She used to paint landscapes with a brush but now she uses a camera.,Any addtional parameters were appended as additional columns
1698332208,c63ccbd28db88d171d1d7eefabbc83d9,PennController,11,0,experimental-trials,NULL,Controller-DashedSentence,DashedSentence,5,landscapes,1698332158474,179,false,She used to paint landscapes with a brush but now she uses a camera.,Any addtional parameters were appended as additional columns
1698332208,c63ccbd28db88d171d1d7eefabbc83d9,PennController,11,0,experimental-trials,NULL,Controller-DashedSentence,DashedSentence,6,with,1698332158474,185,false,She used to paint landscapes with a brush but now she uses a camera.,Any addtional parameters were appended as additional columns
1698332208,c63ccbd28db88d171d1d7eefabbc83d9,PennController,11,0,experimental-trials,NULL,Controller-DashedSentence,DashedSentence,7,a,1698332158474,193,false,She used to paint landscapes with a brush but now she uses a camera.,Any addtional parameters were appended as additional columns
1698332208,c63ccbd28db88d171d1d7eefabbc83d9,PennController,11,0,experimental-trials,NULL,Controller-DashedSentence,DashedSentence,8,brush,1698332158474,202,false,She used to paint landscapes with a brush but now she uses a camera.,Any addtional parameters were appended as additional columns
1698332208,c63ccbd28db88d171d1d7eefabbc83d9,PennController,11,0,experimental-trials,NULL,Controller-DashedSentence,DashedSentence,9,but,1698332158474,178,false,She used to paint landscapes with a brush but now she uses a camera.,Any addtional parameters were appended as additional columns
1698332208,c63ccbd28db88d171d1d7eefabbc83d9,PennController,11,0,experimental-trials,NULL,Controller-DashedSentence,DashedSentence,10,now,1698332158474,202,false,She used to paint landscapes with a brush but now she uses a camera.,Any addtional parameters were appended as additional columns
1698332208,c63ccbd28db88d171d1d7eefabbc83d9,PennController,11,0,experimental-trials,NULL,Controller-DashedSentence,DashedSentence,11,she,1698332158474,194,false,She used to paint landscapes with a brush but now she uses a camera.,Any addtional parameters were appended as additional columns
1698332208,c63ccbd28db88d171d1d7eefabbc83d9,PennController,11,0,experimental-trials,NULL,Controller-DashedSentence,DashedSentence,12,uses,1698332158474,199,false,She used to paint landscapes with a brush but now she uses a camera.,Any addtional parameters were appended as additional columns
1698332208,c63ccbd28db88d171d1d7eefabbc83d9,PennController,11,0,experimental-trials,NULL,Controller-DashedSentence,DashedSentence,13,a,1698332158474,187,false,She used to paint landscapes with a brush but now she uses a camera.,Any addtional parameters were appended as additional columns
1698332208,c63ccbd28db88d171d1d7eefabbc83d9,PennController,11,0,experimental-trials,NULL,Controller-DashedSentence,DashedSentence,14,camera.,1698332158474,428,false,She used to paint landscapes with a brush but now she uses a camera.,Any addtional parameters were appended as additional columns
# 13. Comments.
1698332208,c63ccbd28db88d171d1d7eefabbc83d9,PennController,11,0,experimental-trials,NULL,Scale,exeval3,Choice,1,1698332162543,NULL
1698332208,c63ccbd28db88d171d1d7eefabbc83d9,PennController,11,0,experimental-trials,NULL,Button,Continue2,Click,Click,1698332163365,NULL
1698332208,c63ccbd28db88d171d1d7eefabbc83d9,PennController,11,0,experimental-trials,NULL,PennController,11,_Trial_,End,1698332163367,NULL
1698332208,c63ccbd28db88d171d1d7eefabbc83d9,PennController,16,0,experimental-trials,NULL,PennController,16,_Trial_,Start,1698332163369,NULL
# 13. Reading time.
# 14. Newline?.
# 15. Sentence (or sentence MD5).
# 16. Comments.
1698332208,c63ccbd28db88d171d1d7eefabbc83d9,PennController,16,0,experimental-trials,NULL,Controller-DashedSentence,DashedSentence,1,Were,1698332166079,205,false,Were John and Serena able to watch the fireworks last night?,Any addtional parameters were appended as additional columns
1698332208,c63ccbd28db88d171d1d7eefabbc83d9,PennController,16,0,experimental-trials,NULL,Controller-DashedSentence,DashedSentence,2,John,1698332166079,217,false,Were John and Serena able to watch the fireworks last night?,Any addtional parameters were appended as additional columns
1698332208,c63ccbd28db88d171d1d7eefabbc83d9,PennController,16,0,experimental-trials,NULL,Controller-DashedSentence,DashedSentence,3,and,1698332166079,223,false,Were John and Serena able to watch the fireworks last night?,Any addtional parameters were appended as additional columns
1698332208,c63ccbd28db88d171d1d7eefabbc83d9,PennController,16,0,experimental-trials,NULL,Controller-DashedSentence,DashedSentence,4,Serena,1698332166079,231,false,Were John and Serena able to watch the fireworks last night?,Any addtional parameters were appended as additional columns
1698332208,c63ccbd28db88d171d1d7eefabbc83d9,PennController,16,0,experimental-trials,NULL,Controller-DashedSentence,DashedSentence,5,able,1698332166079,218,false,Were John and Serena able to watch the fireworks last night?,Any addtional parameters were appended as additional columns
1698332208,c63ccbd28db88d171d1d7eefabbc83d9,PennController,16,0,experimental-trials,NULL,Controller-DashedSentence,DashedSentence,6,to,1698332166079,214,false,Were John and Serena able to watch the fireworks last night?,Any addtional parameters were appended as additional columns
1698332208,c63ccbd28db88d171d1d7eefabbc83d9,PennController,16,0,experimental-trials,NULL,Controller-DashedSentence,DashedSentence,7,watch,1698332166079,224,false,Were John and Serena able to watch the fireworks last night?,Any addtional parameters were appended as additional columns
1698332208,c63ccbd28db88d171d1d7eefabbc83d9,PennController,16,0,experimental-trials,NULL,Controller-DashedSentence,DashedSentence,8,the,1698332166079,221,false,Were John and Serena able to watch the fireworks last night?,Any addtional parameters were appended as additional columns
1698332208,c63ccbd28db88d171d1d7eefabbc83d9,PennController,16,0,experimental-trials,NULL,Controller-DashedSentence,DashedSentence,9,fireworks,1698332166079,219,false,Were John and Serena able to watch the fireworks last night?,Any addtional parameters were appended as additional columns
1698332208,c63ccbd28db88d171d1d7eefabbc83d9,PennController,16,0,experimental-trials,NULL,Controller-DashedSentence,DashedSentence,10,last,1698332166079,227,false,Were John and Serena able to watch the fireworks last night?,Any addtional parameters were appended as additional columns
1698332208,c63ccbd28db88d171d1d7eefabbc83d9,PennController,16,0,experimental-trials,NULL,Controller-DashedSentence,DashedSentence,11,night?,1698332166079,223,false,Were John and Serena able to watch the fireworks last night?,Any addtional parameters were appended as additional columns
# 13. Comments.
1698332208,c63ccbd28db88d171d1d7eefabbc83d9,PennController,16,0,experimental-trials,NULL,Scale,exeval3,Choice,2,1698332168933,NULL
1698332208,c63ccbd28db88d171d1d7eefabbc83d9,PennController,16,0,experimental-trials,NULL,Button,Continue2,Click,Click,1698332169382,NULL
1698332208,c63ccbd28db88d171d1d7eefabbc83d9,PennController,16,0,experimental-trials,NULL,PennController,16,_Trial_,End,1698332169384,NULL
1698332208,c63ccbd28db88d171d1d7eefabbc83d9,PennController,19,0,experimental-trials,NULL,PennController,19,_Trial_,Start,1698332169386,NULL
# 13. Reading time.
# 14. Newline?.
# 15. Sentence (or sentence MD5).
# 16. Comments.
1698332208,c63ccbd28db88d171d1d7eefabbc83d9,PennController,19,0,experimental-trials,NULL,Controller-DashedSentence,DashedSentence,1,Which,1698332172335,187,false,Which citizens will lead the people to the promised land?,Any addtional parameters were appended as additional columns
1698332208,c63ccbd28db88d171d1d7eefabbc83d9,PennController,19,0,experimental-trials,NULL,Controller-DashedSentence,DashedSentence,2,citizens,1698332172335,194,false,Which citizens will lead the people to the promised land?,Any addtional parameters were appended as additional columns
1698332208,c63ccbd28db88d171d1d7eefabbc83d9,PennController,19,0,experimental-trials,NULL,Controller-DashedSentence,DashedSentence,3,will,1698332172335,210,false,Which citizens will lead the people to the promised land?,Any addtional parameters were appended as additional columns
1698332208,c63ccbd28db88d171d1d7eefabbc83d9,PennController,19,0,experimental-trials,NULL,Controller-DashedSentence,DashedSentence,4,lead,1698332172335,216,false,Which citizens will lead the people to the promised land?,Any addtional parameters were appended as additional columns
1698332208,c63ccbd28db88d171d1d7eefabbc83d9,PennController,19,0,experimental-trials,NULL,Controller-DashedSentence,DashedSentence,5,the,1698332172335,391,false,Which citizens will lead the people to the promised land?,Any addtional parameters were appended as additional columns
1698332208,c63ccbd28db88d171d1d7eefabbc83d9,PennController,19,0,experimental-trials,NULL,Controller-DashedSentence,DashedSentence,6,people,1698332172335,194,false,Which citizens will lead the people to the promised land?,Any addtional parameters were appended as additional columns
1698332208,c63ccbd28db88d171d1d7eefabbc83d9,PennController,19,0,experimental-trials,NULL,Controller-DashedSentence,DashedSentence,7,to,1698332172335,203,false,Which citizens will lead the people to the promised land?,Any addtional parameters were appended as additional columns
1698332208,c63ccbd28db88d171d1d7eefabbc83d9,PennController,19,0,experimental-trials,NULL,Controller-DashedSentence,DashedSentence,8,the,1698332172335,209,false,Which citizens will lead the people to the promised land?,Any addtional parameters were appended as additional columns
1698332208,c63ccbd28db88d171d1d7eefabbc83d9,PennController,19,0,experimental-trials,NULL,Controller-DashedSentence,DashedSentence,9,promised,1698332172335,217,false,Which citizens will lead the people to the promised land?,Any addtional parameters were appended as additional columns
1698332208,c63ccbd28db88d171d1d7eefabbc83d9,PennController,19,0,experimental-trials,NULL,Controller-DashedSentence,DashedSentence,10,land?,1698332172335,327,false,Which citizens will lead the people to the promised land?,Any addtional parameters were appended as additional columns
# 13. Comments.
1698332208,c63ccbd28db88d171d1d7eefabbc83d9,PennController,19,0,experimental-trials,NULL,Scale,exeval3,Choice,2,1698332174167,NULL
1698332208,c63ccbd28db88d171d1d7eefabbc83d9,PennController,19,0,experimental-trials,NULL,Button,Continue2,Click,Click,1698332174577,NULL
1698332208,c63ccbd28db88d171d1d7eefabbc83d9,PennController,19,0,experimental-trials,NULL,PennController,19,_Trial_,End,1698332174578,NULL
1698332208,c63ccbd28db88d171d1d7eefabbc83d9,PennController,13,0,experimental-trials,NULL,PennController,13,_Trial_,Start,1698332174580,NULL
# 13. Reading time.
# 14. Newline?.
# 15. Sentence (or sentence MD5).
# 16. Comments.
1698332208,c63ccbd28db88d171d1d7eefabbc83d9,PennController,13,0,experimental-trials,NULL,Controller-DashedSentence,DashedSentence,1,We're,1698332177574,197,false,We're watching a movie on sociology that's challenging to understand.,Any addtional parameters were appended as additional columns
1698332208,c63ccbd28db88d171d1d7eefabbc83d9,PennController,13,0,experimental-trials,NULL,Controller-DashedSentence,DashedSentence,2,watching,1698332177574,229,false,We're watching a movie on sociology that's challenging to understand.,Any addtional parameters were appended as additional columns
1698332208,c63ccbd28db88d171d1d7eefabbc83d9,PennController,13,0,experimental-trials,NULL,Controller-DashedSentence,DashedSentence,3,a,1698332177574,281,false,We're watching a movie on sociology that's challenging to understand.,Any addtional parameters were appended as additional columns
1698332208,c63ccbd28db88d171d1d7eefabbc83d9,PennController,13,0,experimental-trials,NULL,Controller-DashedSentence,DashedSentence,4,movie,1698332177574,296,false,We're watching a movie on sociology that's challenging to understand.,Any addtional parameters were appended as additional columns
1698332208,c63ccbd28db88d171d1d7eefabbc83d9,PennController,13,0,experimental-trials,NULL,Controller-DashedSentence,DashedSentence,5,on,1698332177574,233,false,We're watching a movie on sociology that's challenging to understand.,Any addtional parameters were appended as additional columns
1698332208,c63ccbd28db88d171d1d7eefabbc83d9,PennController,13,0,experimental-trials,NULL,Controller-DashedSentence,DashedSentence,6,sociology,1698332177574,326,false,We're watching a movie on sociology that's challenging to understand.,Any addtional parameters were appended as additional columns
1698332208,c63ccbd28db88d171d1d7eefabbc83d9,PennController,13,0,experimental-trials,NULL,Controller-DashedSentence,DashedSentence,7,that's,1698332177574,250,false,We're watching a movie on sociology that's challenging to understand.,Any addtional parameters were appended as additional columns
1698332208,c63ccbd28db88d171d1d7eefabbc83d9,PennController,13,0,experimental-trials,NULL,Controller-DashedSentence,DashedSentence,8,challenging,1698332177574,320,false,We're watching a movie on sociology that's challenging to understand.,Any addtional parameters were appended as additional columns
1698332208,c63ccbd28db88d171d1d7eefabbc83d9,PennController,13,0,experimental-trials,NULL,Controller-DashedSentence,DashedSentence,9,to,1698332177574,282,false,We're watching a movie on sociology that's challenging to understand.,Any addtional parameters were appended as additional columns
1698332208,c63ccbd28db88d171d1d7eefabbc83d9,PennController,13,0,experimental-trials,NULL,Controller-DashedSentence,DashedSentence,10,understand.,1698332177574,264,false,We're watching a movie on sociology that's challenging to understand.,Any addtional parameters were appended as additional columns
# 13. Comments.
1698332208,c63ccbd28db88d171d1d7eefabbc83d9,PennController,13,0,experimental-trials,NULL,Scale,exeval3,Choice,2,1698332179034,NULL
1698332208,c63ccbd28db88d171d1d7eefabbc83d9,PennController,13,0,experimental-trials,NULL,Button,Continue2,Click,Click,1698332179453,NULL
1698332208,c63ccbd28db88d171d1d7eefabbc83d9,PennController,13,0,experimental-trials,NULL,PennController,13,_Trial_,End,1698332179454,NULL
1698332208,c63ccbd28db88d171d1d7eefabbc83d9,PennController,9,0,experimental-trials,NULL,PennController,9,_Trial_,Start,1698332179455,NULL
# 13. Reading time.
# 14. Newline?.
# 15. Sentence (or sentence MD5).
# 16. Comments.
1698332208,c63ccbd28db88d171d1d7eefabbc83d9,PennController,9,0,experimental-trials,NULL,Controller-DashedSentence,DashedSentence,1,The,1698332183076,237,false,The scarecrow won an award because he was outstanding in his field.,Any addtional parameters were appended as additional columns
1698332208,c63ccbd28db88d171d1d7eefabbc83d9,PennController,9,0,experimental-trials,NULL,Controller-DashedSentence,DashedSentence,2,scarecrow,1698332183076,226,false,The scarecrow won an award because he was outstanding in his field.,Any addtional parameters were appended as additional columns
1698332208,c63ccbd28db88d171d1d7eefabbc83d9,PennController,9,0,experimental-trials,NULL,Controller-DashedSentence,DashedSentence,3,won,1698332183076,246,false,The scarecrow won an award because he was outstanding in his field.,Any addtional parameters were appended as additional columns
1698332208,c63ccbd28db88d171d1d7eefabbc83d9,PennController,9,0,experimental-trials,NULL,Controller-DashedSentence,DashedSentence,4,an,1698332183076,287,false,The scarecrow won an award because he was outstanding in his field.,Any addtional parameters were appended as additional columns
1698332208,c63ccbd28db88d171d1d7eefabbc83d9,PennController,9,0,experimental-trials,NULL,Controller-DashedSentence,DashedSentence,5,award,1698332183076,294,false,The scarecrow won an award because he was outstanding in his field.,Any addtional parameters were appended as additional columns
1698332208,c63ccbd28db88d171d1d7eefabbc83d9,PennController,9,0,experimental-trials,NULL,Controller-DashedSentence,DashedSentence,6,because,1698332183076,322,false,The scarecrow won an award because he was outstanding in his field.,Any addtional parameters were appended as additional columns
1698332208,c63ccbd28db88d171d1d7eefabbc83d9,PennController,9,0,experimental-trials,NULL,Controller-DashedSentence,DashedSentence,7,he,1698332183076,315,false,The scarecrow won an award because he was outstanding in his field.,Any addtional parameters were appended as additional columns
1698332208,c63ccbd28db88d171d1d7eefabbc83d9,PennController,9,0,experimental-trials,NULL,Controller-DashedSentence,DashedSentence,8,was,1698332183076,233,false,The scarecrow won an award because he was outstanding in his field.,Any addtional parameters were appended as additional columns
1698332208,c63ccbd28db88d171d1d7eefabbc83d9,PennController,9,0,experimental-trials,NULL,Controller-DashedSentence,DashedSentence,9,outstanding,1698332183076,345,false,The scarecrow won an award because he was outstanding in his field.,Any addtional parameters were appended as additional columns
1698332208,c63ccbd28db88d171d1d7eefabbc83d9,PennController,9,0,experimental-trials,NULL,Controller-DashedSentence,DashedSentence,10,in,1698332183076,269,false,The scarecrow won an award because he was outstanding in his field.,Any addtional parameters were appended as additional columns
1698332208,c63ccbd28db88d171d1d7eefabbc83d9,PennController,9,0,experimental-trials,NULL,Controller-DashedSentence,DashedSentence,11,his,1698332183076,268,false,The scarecrow won an award because he was outstanding in his field.,Any addtional parameters were appended as additional columns
1698332208,c63ccbd28db88d171d1d7eefabbc83d9,PennController,9,0,experimental-trials,NULL,Controller-DashedSentence,DashedSentence,12,field.,1698332183076,339,false,The scarecrow won an award because he was outstanding in his field.,Any addtional parameters were appended as additional columns
# 13. Comments.
1698332208,c63ccbd28db88d171d1d7eefabbc83d9,PennController,9,0,experimental-trials,NULL,Scale,exeval3,Choice,3,1698332183996,NULL
1698332208,c63ccbd28db88d171d1d7eefabbc83d9,PennController,9,0,experimental-trials,NULL,Button,Continue2,Click,Click,1698332184700,NULL
1698332208,c63ccbd28db88d171d1d7eefabbc83d9,PennController,9,0,experimental-trials,NULL,PennController,9,_Trial_,End,1698332184701,NULL
1698332208,c63ccbd28db88d171d1d7eefabbc83d9,PennController,18,0,experimental-trials,NULL,PennController,18,_Trial_,Start,1698332184703,NULL
# 13. Reading time.
# 14. Newline?.
# 15. Sentence (or sentence MD5).
# 16. Comments.
1698332208,c63ccbd28db88d171d1d7eefabbc83d9,PennController,18,0,experimental-trials,NULL,Controller-DashedSentence,DashedSentence,1,Where,1698332188884,239,false,Where did her dog hide the bone and why would it take it away?,Any addtional parameters were appended as additional columns
1698332208,c63ccbd28db88d171d1d7eefabbc83d9,PennController,18,0,experimental-trials,NULL,Controller-DashedSentence,DashedSentence,2,did,1698332188884,316,false,Where did her dog hide the bone and why would it take it away?,Any addtional parameters were appended as additional columns
1698332208,c63ccbd28db88d171d1d7eefabbc83d9,PennController,18,0,experimental-trials,NULL,Controller-DashedSentence,DashedSentence,3,her,1698332188884,219,false,Where did her dog hide the bone and why would it take it away?,Any addtional parameters were appended as additional columns
1698332208,c63ccbd28db88d171d1d7eefabbc83d9,PennController,18,0,experimental-trials,NULL,Controller-DashedSentence,DashedSentence,4,dog,1698332188884,277,false,Where did her dog hide the bone and why would it take it away?,Any addtional parameters were appended as additional columns
1698332208,c63ccbd28db88d171d1d7eefabbc83d9,PennController,18,0,experimental-trials,NULL,Controller-DashedSentence,DashedSentence,5,hide,1698332188884,415,false,Where did her dog hide the bone and why would it take it away?,Any addtional parameters were appended as additional columns
1698332208,c63ccbd28db88d171d1d7eefabbc83d9,PennController,18,0,experimental-trials,NULL,Controller-DashedSentence,DashedSentence,6,the,1698332188884,258,false,Where did her dog hide the bone and why would it take it away?,Any addtional parameters were appended as additional columns
1698332208,c63ccbd28db88d171d1d7eefabbc83d9,PennController,18,0,experimental-trials,NULL,Controller-DashedSentence,DashedSentence,7,bone,1698332188884,239,false,Where did her dog hide the bone and why would it take it away?,Any addtional parameters were appended as additional columns
1698332208,c63ccbd28db88d171d1d7eefabbc83d9,PennController,18,0,experimental-trials,NULL,Controller-DashedSentence,DashedSentence,8,and,1698332188884,258,false,Where did her dog hide the bone and why would it take it away?,Any addtional parameters were appended as additional columns
1698332208,c63ccbd28db88d171d1d7eefabbc83d9,PennController,18,0,experimental-trials,NULL,Controller-DashedSentence,DashedSentence,9,why,1698332188884,252,false,Where did her dog hide the bone and why would it take it away?,Any addtional parameters were appended as additional columns
1698332208,c63ccbd28db88d171d1d7eefabbc83d9,PennController,18,0,experimental-trials,NULL,Controller-DashedSentence,DashedSentence,10,would,1698332188884,245,false,Where did her dog hide the bone and why would it take it away?,Any addtional parameters were appended as additional columns
1698332208,c63ccbd28db88d171d1d7eefabbc83d9,PennController,18,0,experimental-trials,NULL,Controller-DashedSentence,DashedSentence,11,it,1698332188884,240,false,Where did her dog hide the bone and why would it take it away?,Any addtional parameters were appended as additional columns
1698332208,c63ccbd28db88d171d1d7eefabbc83d9,PennController,18,0,experimental-trials,NULL,Controller-DashedSentence,DashedSentence,12,take,1698332188884,228,false,Where did her dog hide the bone and why would it take it away?,Any addtional parameters were appended as additional columns
1698332208,c63ccbd28db88d171d1d7eefabbc83d9,PennController,18,0,experimental-trials,NULL,Controller-DashedSentence,DashedSentence,13,it,1698332188884,238,false,Where did her dog hide the bone and why would it take it away?,Any addtional parameters were appended as additional columns
1698332208,c63ccbd28db88d171d1d7eefabbc83d9,PennController,18,0,experimental-trials,NULL,Controller-DashedSentence,DashedSentence,14,away?,1698332188884,445,false,Where did her dog hide the bone and why would it take it away?,Any addtional parameters were appended as additional columns
# 13. Comments.
1698332208,c63ccbd28db88d171d1d7eefabbc83d9,PennController,18,0,experimental-trials,NULL,Scale,exeval3,Choice,2,1698332189629,NULL
1698332208,c63ccbd28db88d171d1d7eefabbc83d9,PennController,18,0,experimental-trials,NULL,Button,Continue2,Click,Click,1698332190054,NULL
1698332208,c63ccbd28db88d171d1d7eefabbc83d9,PennController,18,0,experimental-trials,NULL,PennController,18,_Trial_,End,1698332190056,NULL
1698332208,c63ccbd28db88d171d1d7eefabbc83d9,PennController,6,0,experimental-trials,NULL,PennController,6,_Trial_,Start,1698332190058,NULL
# 13. Reading time.
# 14. Newline?.
# 15. Sentence (or sentence MD5).
# 16. Comments.
1698332208,c63ccbd28db88d171d1d7eefabbc83d9,PennController,6,0,experimental-trials,NULL,Controller-DashedSentence,DashedSentence,1,I,1698332194236,203,false,I used to play piano by ear but now I use my hands.,Any addtional parameters were appended as additional columns
1698332208,c63ccbd28db88d171d1d7eefabbc83d9,PennController,6,0,experimental-trials,NULL,Controller-DashedSentence,DashedSentence,2,used,1698332194236,322,false,I used to play piano by ear but now I use my hands.,Any addtional parameters were appended as additional columns
1698332208,c63ccbd28db88d171d1d7eefabbc83d9,PennController,6,0,experimental-trials,NULL,Controller-DashedSentence,DashedSentence,3,to,1698332194236,233,false,I used to play piano by ear but now I use my hands.,Any addtional parameters were appended as additional columns
1698332208,c63ccbd28db88d171d1d7eefabbc83d9,PennController,6,0,experimental-trials,NULL,Controller-DashedSentence,DashedSentence,4,play,1698332194236,252,false,I used to play piano by ear but now I use my hands.,Any addtional parameters were appended as additional columns
1698332208,c63ccbd28db88d171d1d7eefabbc83d9,PennController,6,0,experimental-trials,NULL,Controller-DashedSentence,DashedSentence,5,piano,1698332194236,275,false,I used to play piano by ear but now I use my hands.,Any addtional parameters were appended as additional columns
1698332208,c63ccbd28db88d171d1d7eefabbc83d9,PennController,6,0,experimental-trials,NULL,Controller-DashedSentence,DashedSentence,6,by,1698332194236,210,false,I used to play piano by ear but now I use my hands.,Any addtional parameters were appended as additional columns
1698332208,c63ccbd28db88d171d1d7eefabbc83d9,PennController,6,0,experimental-trials,NULL,Controller-DashedSentence,DashedSentence,7,ear,1698332194236,247,false,I used to play piano by ear but now I use my hands.,Any addtional parameters were appended as additional columns
1698332208,c63ccbd28db88d171d1d7eefabbc83d9,PennController,6,0,experimental-trials,NULL,Controller-DashedSentence,DashedSentence,8,but,1698332194236,623,false,I used to play piano by ear but now I use my hands.,Any addtional parameters were appended as additional columns
1698332208,c63ccbd28db88d171d1d7eefabbc83d9,PennController,6,0,experimental-trials,NULL,Controller-DashedSentence,DashedSentence,9,now,1698332194236,328,false,I used to play piano by ear but now I use my hands.,Any addtional parameters were appended as additional columns
1698332208,c63ccbd28db88d171d1d7eefabbc83d9,PennController,6,0,experimental-trials,NULL,Controller-DashedSentence,DashedSentence,10,I,1698332194236,239,false,I used to play piano by ear but now I use my hands.,Any addtional parameters were appended as additional columns
1698332208,c63ccbd28db88d171d1d7eefabbc83d9,PennController,6,0,experimental-trials,NULL,Controller-DashedSentence,DashedSentence,11,use,1698332194236,236,false,I used to play piano by ear but now I use my hands.,Any addtional parameters were appended as additional columns
1698332208,c63ccbd28db88d171d1d7eefabbc83d9,PennController,6,0,experimental-trials,NULL,Controller-DashedSentence,DashedSentence,12,my,1698332194236,231,false,I used to play piano by ear but now I use my hands.,Any addtional parameters were appended as additional columns
1698332208,c63ccbd28db88d171d1d7eefabbc83d9,PennController,6,0,experimental-trials,NULL,Controller-DashedSentence,DashedSentence,13,hands.,1698332194236,368,false,I used to play piano by ear but now I use my hands.,Any addtional parameters were appended as additional columns
# 13. Comments.
1698332208,c63ccbd28db88d171d1d7eefabbc83d9,PennController,6,0,experimental-trials,NULL,Scale,exeval3,Choice,3,1698332196091,NULL
1698332208,c63ccbd28db88d171d1d7eefabbc83d9,PennController,6,0,experimental-trials,NULL,Button,Continue2,Click,Click,1698332196718,NULL
1698332208,c63ccbd28db88d171d1d7eefabbc83d9,PennController,6,0,experimental-trials,NULL,PennController,6,_Trial_,End,1698332196720,NULL
1698332208,c63ccbd28db88d171d1d7eefabbc83d9,PennController,7,0,experimental-trials,NULL,PennController,7,_Trial_,Start,1698332196722,NULL
# 13. Reading time.
# 14. Newline?.
# 15. Sentence (or sentence MD5).
# 16. Comments.
1698332208,c63ccbd28db88d171d1d7eefabbc83d9,PennController,7,0,experimental-trials,NULL,Controller-DashedSentence,DashedSentence,1,The,1698332199532,213,false,The bicycle couldn't stand up because it was two tired.,Any addtional parameters were appended as additional columns
1698332208,c63ccbd28db88d171d1d7eefabbc83d9,PennController,7,0,experimental-trials,NULL,Controller-DashedSentence,DashedSentence,2,bicycle,1698332199532,255,false,The bicycle couldn't stand up because it was two tired.,Any addtional parameters were appended as additional columns
1698332208,c63ccbd28db88d171d1d7eefabbc83d9,PennController,7,0,experimental-trials,NULL,Controller-DashedSentence,DashedSentence,3,couldn't,1698332199532,222,false,The bicycle couldn't stand up because it was two tired.,Any addtional parameters were appended as additional columns
1698332208,c63ccbd28db88d171d1d7eefabbc83d9,PennController,7,0,experimental-trials,NULL,Controller-DashedSentence,DashedSentence,4,stand,1698332199532,330,false,The bicycle couldn't stand up because it was two tired.,Any addtional parameters were appended as additional columns
1698332208,c63ccbd28db88d171d1d7eefabbc83d9,PennController,7,0,experimental-trials,NULL,Controller-DashedSentence,DashedSentence,5,up,1698332199532,228,false,The bicycle couldn't stand up because it was two tired.,Any addtional parameters were appended as additional columns
1698332208,c63ccbd28db88d171d1d7eefabbc83d9,PennController,7,0,experimental-trials,NULL,Controller-DashedSentence,DashedSentence,6,because,1698332199532,241,false,The bicycle couldn't stand up because it was two tired.,Any addtional parameters were appended as additional columns
1698332208,c63ccbd28db88d171d1d7eefabbc83d9,PennController,7,0,experimental-trials,NULL,Controller-DashedSentence,DashedSentence,7,it,1698332199532,233,false,The bicycle couldn't stand up because it was two tired.,Any addtional parameters were appended as additional columns
1698332208,c63ccbd28db88d171d1d7eefabbc83d9,PennController,7,0,experimental-trials,NULL,Controller-DashedSentence,DashedSentence,8,was,1698332199532,239,false,The bicycle couldn't stand up because it was two tired.,Any addtional parameters were appended as additional columns
1698332208,c63ccbd28db88d171d1d7eefabbc83d9,PennController,7,0,experimental-trials,NULL,Controller-DashedSentence,DashedSentence,9,two,1698332199532,233,false,The bicycle couldn't stand up because it was two tired.,Any addtional parameters were appended as additional columns
1698332208,c63ccbd28db88d171d1d7eefabbc83d9,PennController,7,0,experimental-trials,NULL,Controller-DashedSentence,DashedSentence,10,tired.,1698332199532,312,false,The bicycle couldn't stand up because it was two tired.,Any addtional parameters were appended as additional columns
# 13. Comments.
1698332208,c63ccbd28db88d171d1d7eefabbc83d9,PennController,7,0,experimental-trials,NULL,Scale,exeval3,Choice,4,1698332200512,NULL
1698332208,c63ccbd28db88d171d1d7eefabbc83d9,PennController,7,0,experimental-trials,NULL,Button,Continue2,Click,Click,1698332201122,NULL
1698332208,c63ccbd28db88d171d1d7eefabbc83d9,PennController,7,0,experimental-trials,NULL,PennController,7,_Trial_,End,1698332201124,NULL
1698332208,c63ccbd28db88d171d1d7eefabbc83d9,PennController,12,0,experimental-trials,NULL,PennController,12,_Trial_,Start,1698332201126,NULL
# 13. Reading time.
# 14. Newline?.
# 15. Sentence (or sentence MD5).
# 16. Comments.
1698332208,c63ccbd28db88d171d1d7eefabbc83d9,PennController,12,0,experimental-trials,NULL,Controller-DashedSentence,DashedSentence,1,The,1698332205081,344,false,The bookshelf couldn't hold all the books because it was too small.,Any addtional parameters were appended as additional columns
1698332208,c63ccbd28db88d171d1d7eefabbc83d9,PennController,12,0,experimental-trials,NULL,Controller-DashedSentence,DashedSentence,2,bookshelf,1698332205081,245,false,The bookshelf couldn't hold all the books because it was too small.,Any addtional parameters were appended as additional columns
1698332208,c63ccbd28db88d171d1d7eefabbc83d9,PennController,12,0,experimental-trials,NULL,Controller-DashedSentence,DashedSentence,3,couldn't,1698332205081,344,false,The bookshelf couldn't hold all the books because it was too small.,Any addtional parameters were appended as additional columns
1698332208,c63ccbd28db88d171d1d7eefabbc83d9,PennController,12,0,experimental-trials,NULL,Controller-DashedSentence,DashedSentence,4,hold,1698332205081,413,false,The bookshelf couldn't hold all the books because it was too small.,Any addtional parameters were appended as additional columns
1698332208,c63ccbd28db88d171d1d7eefabbc83d9,PennController,12,0,experimental-trials,NULL,Controller-DashedSentence,DashedSentence,5,all,1698332205081,227,false,The bookshelf couldn't hold all the books because it was too small.,Any addtional parameters were appended as additional columns
1698332208,c63ccbd28db88d171d1d7eefabbc83d9,PennController,12,0,experimental-trials,NULL,Controller-DashedSentence,DashedSentence,6,the,1698332205081,314,false,The bookshelf couldn't hold all the books because it was too small.,Any addtional parameters were appended as additional columns
1698332208,c63ccbd28db88d171d1d7eefabbc83d9,PennController,12,0,experimental-trials,NULL,Controller-DashedSentence,DashedSentence,7,books,1698332205081,223,false,The bookshelf couldn't hold all the books because it was too small.,Any addtional parameters were appended as additional columns
1698332208,c63ccbd28db88d171d1d7eefabbc83d9,PennController,12,0,experimental-trials,NULL,Controller-DashedSentence,DashedSentence,8,because,1698332205081,362,false,The bookshelf couldn't hold all the books because it was too small.,Any addtional parameters were appended as additional columns
1698332208,c63ccbd28db88d171d1d7eefabbc83d9,PennController,12,0,experimental-trials,NULL,Controller-DashedSentence,DashedSentence,9,it,1698332205081,291,false,The bookshelf couldn't hold all the books because it was too small.,Any addtional parameters were appended as additional columns
1698332208,c63ccbd28db88d171d1d7eefabbc83d9,PennController,12,0,experimental-trials,NULL,Controller-DashedSentence,DashedSentence,10,was,1698332205081,296,false,The bookshelf couldn't hold all the books because it was too small.,Any addtional parameters were appended as additional columns
1698332208,c63ccbd28db88d171d1d7eefabbc83d9,PennController,12,0,experimental-trials,NULL,Controller-DashedSentence,DashedSentence,11,too,1698332205081,284,false,The bookshelf couldn't hold all the books because it was too small.,Any addtional parameters were appended as additional columns
1698332208,c63ccbd28db88d171d1d7eefabbc83d9,PennController,12,0,experimental-trials,NULL,Controller-DashedSentence,DashedSentence,12,small.,1698332205081,264,false,The bookshelf couldn't hold all the books because it was too small.,Any addtional parameters were appended as additional columns
# 13. Comments.
1698332208,c63ccbd28db88d171d1d7eefabbc83d9,PennController,12,0,experimental-trials,NULL,Scale,exeval3,Choice,1,1698332207775,NULL
1698332208,c63ccbd28db88d171d1d7eefabbc83d9,PennController,12,0,experimental-trials,NULL,Button,Continue2,Click,Click,1698332208225,NULL
1698332208,c63ccbd28db88d171d1d7eefabbc83d9,PennController,12,0,experimental-trials,NULL,PennController,12,_Trial_,End,1698332208227,NULL
#
# Results on Thu, 26 Oct 2023 14:56:57 GMT
# USER AGENT: Mozilla/5.0 (Macintosh; Intel Mac OS X 10_15_7) AppleWebKit/537.36 (KHTML, like Gecko) Chrome/117.0.0.0 Safari/537.36
# Design number was non-random = 2
#
# Columns below this comment are as follows:
# 1. Results reception time.
# 2. MD5 hash of participant's IP address.
# 3. Controller name.
# 4. Order number of item.
# 5. Inner element number.
# 6. Label.
# 7. Latin Square Group.
# 8. PennElementType.
# 9. PennElementName.
# 10. Parameter.
# 11. Value.
# 12. EventTime.
# 13. Comments.
1698332217,f9aa9cc777483e0aac4eaa748c997481,PennController,1,0,consent,NULL,PennController,0,_Trial_,Start,1698332055536,NULL
1698332217,f9aa9cc777483e0aac4eaa748c997481,PennController,1,0,consent,NULL,PennController,0,_Trial_,End,1698332073768,NULL
1698332217,f9aa9cc777483e0aac4eaa748c997481,PennController,2,0,instructions,NULL,PennController,1,_Trial_,Start,1698332073769,NULL
1698332217,f9aa9cc777483e0aac4eaa748c997481,PennController,2,0,instructions,NULL,PennController,1,_Trial_,End,1698332083430,NULL
1698332217,f9aa9cc777483e0aac4eaa748c997481,PennController,3,0,practice-trial-1,NULL,PennController,2,_Trial_,Start,1698332083431,NULL
# 13. Reading time.
# 14. Newline?.
# 15. Sentence (or sentence MD5).
# 16. Comments.
1698332217,f9aa9cc777483e0aac4eaa748c997481,PennController,3,0,practice-trial-1,NULL,Controller-DashedSentence,DashedSentence,1,This,1698332091247,529,false,This is a practice trial to help you understand the task.,Any addtional parameters were appended as additional columns
1698332217,f9aa9cc777483e0aac4eaa748c997481,PennController,3,0,practice-trial-1,NULL,Controller-DashedSentence,DashedSentence,2,is,1698332091247,490,false,This is a practice trial to help you understand the task.,Any addtional parameters were appended as additional columns
1698332217,f9aa9cc777483e0aac4eaa748c997481,PennController,3,0,practice-trial-1,NULL,Controller-DashedSentence,DashedSentence,3,a,1698332091247,414,false,This is a practice trial to help you understand the task.,Any addtional parameters were appended as additional columns
1698332217,f9aa9cc777483e0aac4eaa748c997481,PennController,3,0,practice-trial-1,NULL,Controller-DashedSentence,DashedSentence,4,practice,1698332091247,376,false,This is a practice trial to help you understand the task.,Any addtional parameters were appended as additional columns
1698332217,f9aa9cc777483e0aac4eaa748c997481,PennController,3,0,practice-trial-1,NULL,Controller-DashedSentence,DashedSentence,5,trial,1698332091247,542,false,This is a practice trial to help you understand the task.,Any addtional parameters were appended as additional columns
1698332217,f9aa9cc777483e0aac4eaa748c997481,PennController,3,0,practice-trial-1,NULL,Controller-DashedSentence,DashedSentence,6,to,1698332091247,364,false,This is a practice trial to help you understand the task.,Any addtional parameters were appended as additional columns
1698332217,f9aa9cc777483e0aac4eaa748c997481,PennController,3,0,practice-trial-1,NULL,Controller-DashedSentence,DashedSentence,7,help,1698332091247,293,false,This is a practice trial to help you understand the task.,Any addtional parameters were appended as additional columns
1698332217,f9aa9cc777483e0aac4eaa748c997481,PennController,3,0,practice-trial-1,NULL,Controller-DashedSentence,DashedSentence,8,you,1698332091247,371,false,This is a practice trial to help you understand the task.,Any addtional parameters were appended as additional columns
1698332217,f9aa9cc777483e0aac4eaa748c997481,PennController,3,0,practice-trial-1,NULL,Controller-DashedSentence,DashedSentence,9,understand,1698332091247,365,false,This is a practice trial to help you understand the task.,Any addtional parameters were appended as additional columns
1698332217,f9aa9cc777483e0aac4eaa748c997481,PennController,3,0,practice-trial-1,NULL,Controller-DashedSentence,DashedSentence,10,the,1698332091247,317,false,This is a practice trial to help you understand the task.,Any addtional parameters were appended as additional columns
1698332217,f9aa9cc777483e0aac4eaa748c997481,PennController,3,0,practice-trial-1,NULL,Controller-DashedSentence,DashedSentence,11,task.,1698332091247,817,false,This is a practice trial to help you understand the task.,Any addtional parameters were appended as additional columns
# 13. Comments.
1698332217,f9aa9cc777483e0aac4eaa748c997481,PennController,3,0,practice-trial-1,NULL,Scale,exeval,Choice,3,1698332093518,NULL
1698332217,f9aa9cc777483e0aac4eaa748c997481,PennController,3,0,practice-trial-1,NULL,PennController,2,_Trial_,End,1698332094532,NULL
1698332217,f9aa9cc777483e0aac4eaa748c997481,PennController,4,0,practice-trial-2,NULL,PennController,3,_Trial_,Start,1698332094533,NULL
# 13. Reading time.
# 14. Newline?.
# 15. Sentence (or sentence MD5).
# 16. Comments.
1698332217,f9aa9cc777483e0aac4eaa748c997481,PennController,4,0,practice-trial-2,NULL,Controller-DashedSentence,DashedSentence,1,I,1698332098764,384,false,I believe that you are a wonderful person!,Any addtional parameters were appended as additional columns
1698332217,f9aa9cc777483e0aac4eaa748c997481,PennController,4,0,practice-trial-2,NULL,Controller-DashedSentence,DashedSentence,2,believe,1698332098764,364,false,I believe that you are a wonderful person!,Any addtional parameters were appended as additional columns
1698332217,f9aa9cc777483e0aac4eaa748c997481,PennController,4,0,practice-trial-2,NULL,Controller-DashedSentence,DashedSentence,3,that,1698332098764,386,false,I believe that you are a wonderful person!,Any addtional parameters were appended as additional columns
1698332217,f9aa9cc777483e0aac4eaa748c997481,PennController,4,0,practice-trial-2,NULL,Controller-DashedSentence,DashedSentence,4,you,1698332098764,393,false,I believe that you are a wonderful person!,Any addtional parameters were appended as additional columns
1698332217,f9aa9cc777483e0aac4eaa748c997481,PennController,4,0,practice-trial-2,NULL,Controller-DashedSentence,DashedSentence,5,are,1698332098764,398,false,I believe that you are a wonderful person!,Any addtional parameters were appended as additional columns
1698332217,f9aa9cc777483e0aac4eaa748c997481,PennController,4,0,practice-trial-2,NULL,Controller-DashedSentence,DashedSentence,6,a,1698332098764,319,false,I believe that you are a wonderful person!,Any addtional parameters were appended as additional columns
1698332217,f9aa9cc777483e0aac4eaa748c997481,PennController,4,0,practice-trial-2,NULL,Controller-DashedSentence,DashedSentence,7,wonderful,1698332098764,356,false,I believe that you are a wonderful person!,Any addtional parameters were appended as additional columns
1698332217,f9aa9cc777483e0aac4eaa748c997481,PennController,4,0,practice-trial-2,NULL,Controller-DashedSentence,DashedSentence,8,person!,1698332098764,628,false,I believe that you are a wonderful person!,Any addtional parameters were appended as additional columns
# 13. Comments.
1698332217,f9aa9cc777483e0aac4eaa748c997481,PennController,4,0,practice-trial-2,NULL,Scale,exeval2,Choice,4,1698332100048,NULL
1698332217,f9aa9cc777483e0aac4eaa748c997481,PennController,4,0,practice-trial-2,NULL,PennController,3,_Trial_,End,1698332101500,NULL
1698332217,f9aa9cc777483e0aac4eaa748c997481,PennController,5,0,pre-experiment,NULL,PennController,4,_Trial_,Start,1698332101500,NULL
1698332217,f9aa9cc777483e0aac4eaa748c997481,PennController,5,0,pre-experiment,NULL,PennController,4,_Trial_,End,1698332105588,NULL
1698332217,f9aa9cc777483e0aac4eaa748c997481,PennController,18,0,experimental-trials,NULL,PennController,18,_Trial_,Start,1698332105588,NULL
# 13. Reading time.
# 14. Newline?.
# 15. Sentence (or sentence MD5).
# 16. Comments.
1698332217,f9aa9cc777483e0aac4eaa748c997481,PennController,18,0,experimental-trials,NULL,Controller-DashedSentence,DashedSentence,1,Where,1698332111374,323,false,Where did her dog hide the bone and why would it take it away?,Any addtional parameters were appended as additional columns
1698332217,f9aa9cc777483e0aac4eaa748c997481,PennController,18,0,experimental-trials,NULL,Controller-DashedSentence,DashedSentence,2,did,1698332111374,371,false,Where did her dog hide the bone and why would it take it away?,Any addtional parameters were appended as additional columns
1698332217,f9aa9cc777483e0aac4eaa748c997481,PennController,18,0,experimental-trials,NULL,Controller-DashedSentence,DashedSentence,3,her,1698332111374,305,false,Where did her dog hide the bone and why would it take it away?,Any addtional parameters were appended as additional columns
1698332217,f9aa9cc777483e0aac4eaa748c997481,PennController,18,0,experimental-trials,NULL,Controller-DashedSentence,DashedSentence,4,dog,1698332111374,361,false,Where did her dog hide the bone and why would it take it away?,Any addtional parameters were appended as additional columns
1698332217,f9aa9cc777483e0aac4eaa748c997481,PennController,18,0,experimental-trials,NULL,Controller-DashedSentence,DashedSentence,5,hide,1698332111374,364,false,Where did her dog hide the bone and why would it take it away?,Any addtional parameters were appended as additional columns
1698332217,f9aa9cc777483e0aac4eaa748c997481,PennController,18,0,experimental-trials,NULL,Controller-DashedSentence,DashedSentence,6,the,1698332111374,407,false,Where did her dog hide the bone and why would it take it away?,Any addtional parameters were appended as additional columns
1698332217,f9aa9cc777483e0aac4eaa748c997481,PennController,18,0,experimental-trials,NULL,Controller-DashedSentence,DashedSentence,7,bone,1698332111374,407,false,Where did her dog hide the bone and why would it take it away?,Any addtional parameters were appended as additional columns
1698332217,f9aa9cc777483e0aac4eaa748c997481,PennController,18,0,experimental-trials,NULL,Controller-DashedSentence,DashedSentence,8,and,1698332111374,384,false,Where did her dog hide the bone and why would it take it away?,Any addtional parameters were appended as additional columns
1698332217,f9aa9cc777483e0aac4eaa748c997481,PennController,18,0,experimental-trials,NULL,Controller-DashedSentence,DashedSentence,9,why,1698332111374,368,false,Where did her dog hide the bone and why would it take it away?,Any addtional parameters were appended as additional columns
1698332217,f9aa9cc777483e0aac4eaa748c997481,PennController,18,0,experimental-trials,NULL,Controller-DashedSentence,DashedSentence,10,would,1698332111374,379,false,Where did her dog hide the bone and why would it take it away?,Any addtional parameters were appended as additional columns
1698332217,f9aa9cc777483e0aac4eaa748c997481,PennController,18,0,experimental-trials,NULL,Controller-DashedSentence,DashedSentence,11,it,1698332111374,436,false,Where did her dog hide the bone and why would it take it away?,Any addtional parameters were appended as additional columns
1698332217,f9aa9cc777483e0aac4eaa748c997481,PennController,18,0,experimental-trials,NULL,Controller-DashedSentence,DashedSentence,12,take,1698332111374,367,false,Where did her dog hide the bone and why would it take it away?,Any addtional parameters were appended as additional columns
1698332217,f9aa9cc777483e0aac4eaa748c997481,PennController,18,0,experimental-trials,NULL,Controller-DashedSentence,DashedSentence,13,it,1698332111374,332,false,Where did her dog hide the bone and why would it take it away?,Any addtional parameters were appended as additional columns
1698332217,f9aa9cc777483e0aac4eaa748c997481,PennController,18,0,experimental-trials,NULL,Controller-DashedSentence,DashedSentence,14,away?,1698332111374,510,false,Where did her dog hide the bone and why would it take it away?,Any addtional parameters were appended as additional columns
# 13. Comments.
1698332217,f9aa9cc777483e0aac4eaa748c997481,PennController,18,0,experimental-trials,NULL,Scale,exeval3,Choice,2,1698332112778,NULL
1698332217,f9aa9cc777483e0aac4eaa748c997481,PennController,18,0,experimental-trials,NULL,Button,Continue2,Click,Click,1698332114035,NULL
1698332217,f9aa9cc777483e0aac4eaa748c997481,PennController,18,0,experimental-trials,NULL,PennController,18,_Trial_,End,1698332114036,NULL
1698332217,f9aa9cc777483e0aac4eaa748c997481,PennController,17,0,experimental-trials,NULL,PennController,17,_Trial_,Start,1698332114036,NULL
# 13. Reading time.
# 14. Newline?.
# 15. Sentence (or sentence MD5).
# 16. Comments.
1698332217,f9aa9cc777483e0aac4eaa748c997481,PennController,17,0,experimental-trials,NULL,Controller-DashedSentence,DashedSentence,1,How,1698332117826,340,false,How quickly did the lion cross the savannah?,Any addtional parameters were appended as additional columns
1698332217,f9aa9cc777483e0aac4eaa748c997481,PennController,17,0,experimental-trials,NULL,Controller-DashedSentence,DashedSentence,2,quickly,1698332117826,352,false,How quickly did the lion cross the savannah?,Any addtional parameters were appended as additional columns
1698332217,f9aa9cc777483e0aac4eaa748c997481,PennController,17,0,experimental-trials,NULL,Controller-DashedSentence,DashedSentence,3,did,1698332117826,434,false,How quickly did the lion cross the savannah?,Any addtional parameters were appended as additional columns
1698332217,f9aa9cc777483e0aac4eaa748c997481,PennController,17,0,experimental-trials,NULL,Controller-DashedSentence,DashedSentence,4,the,1698332117826,406,false,How quickly did the lion cross the savannah?,Any addtional parameters were appended as additional columns
1698332217,f9aa9cc777483e0aac4eaa748c997481,PennController,17,0,experimental-trials,NULL,Controller-DashedSentence,DashedSentence,5,lion,1698332117826,420,false,How quickly did the lion cross the savannah?,Any addtional parameters were appended as additional columns
1698332217,f9aa9cc777483e0aac4eaa748c997481,PennController,17,0,experimental-trials,NULL,Controller-DashedSentence,DashedSentence,6,cross,1698332117826,444,false,How quickly did the lion cross the savannah?,Any addtional parameters were appended as additional columns
1698332217,f9aa9cc777483e0aac4eaa748c997481,PennController,17,0,experimental-trials,NULL,Controller-DashedSentence,DashedSentence,7,the,1698332117826,354,false,How quickly did the lion cross the savannah?,Any addtional parameters were appended as additional columns
1698332217,f9aa9cc777483e0aac4eaa748c997481,PennController,17,0,experimental-trials,NULL,Controller-DashedSentence,DashedSentence,8,savannah?,1698332117826,467,false,How quickly did the lion cross the savannah?,Any addtional parameters were appended as additional columns
# 13. Comments.
1698332217,f9aa9cc777483e0aac4eaa748c997481,PennController,17,0,experimental-trials,NULL,Scale,exeval3,Choice,4,1698332119446,NULL
1698332217,f9aa9cc777483e0aac4eaa748c997481,PennController,17,0,experimental-trials,NULL,Button,Continue2,Click,Click,1698332120345,NULL
1698332217,f9aa9cc777483e0aac4eaa748c997481,PennController,17,0,experimental-trials,NULL,PennController,17,_Trial_,End,1698332120346,NULL
1698332217,f9aa9cc777483e0aac4eaa748c997481,PennController,14,0,experimental-trials,NULL,PennController,14,_Trial_,Start,1698332120347,NULL
# 13. Reading time.
# 14. Newline?.
# 15. Sentence (or sentence MD5).
# 16. Comments.
1698332217,f9aa9cc777483e0aac4eaa748c997481,PennController,14,0,experimental-trials,NULL,Controller-DashedSentence,DashedSentence,1,The,1698332126472,319,false,The chef received a prize because she was exceptional in the kitchen.,Any addtional parameters were appended as additional columns
1698332217,f9aa9cc777483e0aac4eaa748c997481,PennController,14,0,experimental-trials,NULL,Controller-DashedSentence,DashedSentence,2,chef,1698332126472,369,false,The chef received a prize because she was exceptional in the kitchen.,Any addtional parameters were appended as additional columns
1698332217,f9aa9cc777483e0aac4eaa748c997481,PennController,14,0,experimental-trials,NULL,Controller-DashedSentence,DashedSentence,3,received,1698332126472,477,false,The chef received a prize because she was exceptional in the kitchen.,Any addtional parameters were appended as additional columns
1698332217,f9aa9cc777483e0aac4eaa748c997481,PennController,14,0,experimental-trials,NULL,Controller-DashedSentence,DashedSentence,4,a,1698332126472,408,false,The chef received a prize because she was exceptional in the kitchen.,Any addtional parameters were appended as additional columns
1698332217,f9aa9cc777483e0aac4eaa748c997481,PennController,14,0,experimental-trials,NULL,Controller-DashedSentence,DashedSentence,5,prize,1698332126472,358,false,The chef received a prize because she was exceptional in the kitchen.,Any addtional parameters were appended as additional columns
1698332217,f9aa9cc777483e0aac4eaa748c997481,PennController,14,0,experimental-trials,NULL,Controller-DashedSentence,DashedSentence,6,because,1698332126472,437,false,The chef received a prize because she was exceptional in the kitchen.,Any addtional parameters were appended as additional columns
1698332217,f9aa9cc777483e0aac4eaa748c997481,PennController,14,0,experimental-trials,NULL,Controller-DashedSentence,DashedSentence,7,she,1698332126472,384,false,The chef received a prize because she was exceptional in the kitchen.,Any addtional parameters were appended as additional columns
1698332217,f9aa9cc777483e0aac4eaa748c997481,PennController,14,0,experimental-trials,NULL,Controller-DashedSentence,DashedSentence,8,was,1698332126472,401,false,The chef received a prize because she was exceptional in the kitchen.,Any addtional parameters were appended as additional columns
1698332217,f9aa9cc777483e0aac4eaa748c997481,PennController,14,0,experimental-trials,NULL,Controller-DashedSentence,DashedSentence,9,exceptional,1698332126472,470,false,The chef received a prize because she was exceptional in the kitchen.,Any addtional parameters were appended as additional columns
1698332217,f9aa9cc777483e0aac4eaa748c997481,PennController,14,0,experimental-trials,NULL,Controller-DashedSentence,DashedSentence,10,in,1698332126472,379,false,The chef received a prize because she was exceptional in the kitchen.,Any addtional parameters were appended as additional columns
1698332217,f9aa9cc777483e0aac4eaa748c997481,PennController,14,0,experimental-trials,NULL,Controller-DashedSentence,DashedSentence,11,the,1698332126472,390,false,The chef received a prize because she was exceptional in the kitchen.,Any addtional parameters were appended as additional columns
1698332217,f9aa9cc777483e0aac4eaa748c997481,PennController,14,0,experimental-trials,NULL,Controller-DashedSentence,DashedSentence,12,kitchen.,1698332126472,348,false,The chef received a prize because she was exceptional in the kitchen.,Any addtional parameters were appended as additional columns
# 13. Comments.
1698332217,f9aa9cc777483e0aac4eaa748c997481,PennController,14,0,experimental-trials,NULL,Scale,exeval3,Choice,3,1698332128855,NULL
1698332217,f9aa9cc777483e0aac4eaa748c997481,PennController,14,0,experimental-trials,NULL,Button,Continue2,Click,Click,1698332129390,NULL
1698332217,f9aa9cc777483e0aac4eaa748c997481,PennController,14,0,experimental-trials,NULL,PennController,14,_Trial_,End,1698332129390,NULL
1698332217,f9aa9cc777483e0aac4eaa748c997481,PennController,20,0,experimental-trials,NULL,PennController,20,_Trial_,Start,1698332129391,NULL
# 13. Reading time.
# 14. Newline?.
# 15. Sentence (or sentence MD5).
# 16. Comments.
1698332217,f9aa9cc777483e0aac4eaa748c997481,PennController,20,0,experimental-trials,NULL,Controller-DashedSentence,DashedSentence,1,Who,1698332135073,368,false,Who all did Vikram call on the phone after the party last night?,Any addtional parameters were appended as additional columns
1698332217,f9aa9cc777483e0aac4eaa748c997481,PennController,20,0,experimental-trials,NULL,Controller-DashedSentence,DashedSentence,2,all,1698332135073,351,false,Who all did Vikram call on the phone after the party last night?,Any addtional parameters were appended as additional columns
1698332217,f9aa9cc777483e0aac4eaa748c997481,PennController,20,0,experimental-trials,NULL,Controller-DashedSentence,DashedSentence,3,did,1698332135073,419,false,Who all did Vikram call on the phone after the party last night?,Any addtional parameters were appended as additional columns
1698332217,f9aa9cc777483e0aac4eaa748c997481,PennController,20,0,experimental-trials,NULL,Controller-DashedSentence,DashedSentence,4,Vikram,1698332135073,542,false,Who all did Vikram call on the phone after the party last night?,Any addtional parameters were appended as additional columns
1698332217,f9aa9cc777483e0aac4eaa748c997481,PennController,20,0,experimental-trials,NULL,Controller-DashedSentence,DashedSentence,5,call,1698332135073,471,false,Who all did Vikram call on the phone after the party last night?,Any addtional parameters were appended as additional columns
1698332217,f9aa9cc777483e0aac4eaa748c997481,PennController,20,0,experimental-trials,NULL,Controller-DashedSentence,DashedSentence,6,on,1698332135073,397,false,Who all did Vikram call on the phone after the party last night?,Any addtional parameters were appended as additional columns
1698332217,f9aa9cc777483e0aac4eaa748c997481,PennController,20,0,experimental-trials,NULL,Controller-DashedSentence,DashedSentence,7,the,1698332135073,358,false,Who all did Vikram call on the phone after the party last night?,Any addtional parameters were appended as additional columns
1698332217,f9aa9cc777483e0aac4eaa748c997481,PennController,20,0,experimental-trials,NULL,Controller-DashedSentence,DashedSentence,8,phone,1698332135073,354,false,Who all did Vikram call on the phone after the party last night?,Any addtional parameters were appended as additional columns
1698332217,f9aa9cc777483e0aac4eaa748c997481,PennController,20,0,experimental-trials,NULL,Controller-DashedSentence,DashedSentence,9,after,1698332135073,341,false,Who all did Vikram call on the phone after the party last night?,Any addtional parameters were appended as additional columns
1698332217,f9aa9cc777483e0aac4eaa748c997481,PennController,20,0,experimental-trials,NULL,Controller-DashedSentence,DashedSentence,10,the,1698332135073,397,false,Who all did Vikram call on the phone after the party last night?,Any addtional parameters were appended as additional columns
1698332217,f9aa9cc777483e0aac4eaa748c997481,PennController,20,0,experimental-trials,NULL,Controller-DashedSentence,DashedSentence,11,party,1698332135073,546,false,Who all did Vikram call on the phone after the party last night?,Any addtional parameters were appended as additional columns
1698332217,f9aa9cc777483e0aac4eaa748c997481,PennController,20,0,experimental-trials,NULL,Controller-DashedSentence,DashedSentence,12,last,1698332135073,310,false,Who all did Vikram call on the phone after the party last night?,Any addtional parameters were appended as additional columns
1698332217,f9aa9cc777483e0aac4eaa748c997481,PennController,20,0,experimental-trials,NULL,Controller-DashedSentence,DashedSentence,13,night?,1698332135073,349,false,Who all did Vikram call on the phone after the party last night?,Any addtional parameters were appended as additional columns
# 13. Comments.
1698332217,f9aa9cc777483e0aac4eaa748c997481,PennController,20,0,experimental-trials,NULL,Scale,exeval3,Choice,2,1698332136827,NULL
1698332217,f9aa9cc777483e0aac4eaa748c997481,PennController,20,0,experimental-trials,NULL,Button,Continue2,Click,Click,1698332137492,NULL
1698332217,f9aa9cc777483e0aac4eaa748c997481,PennController,20,0,experimental-trials,NULL,PennController,20,_Trial_,End,1698332137493,NULL
1698332217,f9aa9cc777483e0aac4eaa748c997481,PennController,19,0,experimental-trials,NULL,PennController,19,_Trial_,Start,1698332137494,NULL
# 13. Reading time.
# 14. Newline?.
# 15. Sentence (or sentence MD5).
# 16. Comments.
1698332217,f9aa9cc777483e0aac4eaa748c997481,PennController,19,0,experimental-trials,NULL,Controller-DashedSentence,DashedSentence,1,Which,1698332141631,371,false,Which citizens will lead the people to the promised land?,Any addtional parameters were appended as additional columns
1698332217,f9aa9cc777483e0aac4eaa748c997481,PennController,19,0,experimental-trials,NULL,Controller-DashedSentence,DashedSentence,2,citizens,1698332141631,356,false,Which citizens will lead the people to the promised land?,Any addtional parameters were appended as additional columns
1698332217,f9aa9cc777483e0aac4eaa748c997481,PennController,19,0,experimental-trials,NULL,Controller-DashedSentence,DashedSentence,3,will,1698332141631,401,false,Which citizens will lead the people to the promised land?,Any addtional parameters were appended as additional columns
1698332217,f9aa9cc777483e0aac4eaa748c997481,PennController,19,0,experimental-trials,NULL,Controller-DashedSentence,DashedSentence,4,lead,1698332141631,406,false,Which citizens will lead the people to the promised land?,Any addtional parameters were appended as additional columns
1698332217,f9aa9cc777483e0aac4eaa748c997481,PennController,19,0,experimental-trials,NULL,Controller-DashedSentence,DashedSentence,5,the,1698332141631,384,false,Which citizens will lead the people to the promised land?,Any addtional parameters were appended as additional columns
1698332217,f9aa9cc777483e0aac4eaa748c997481,PennController,19,0,experimental-trials,NULL,Controller-DashedSentence,DashedSentence,6,people,1698332141631,374,false,Which citizens will lead the people to the promised land?,Any addtional parameters were appended as additional columns
1698332217,f9aa9cc777483e0aac4eaa748c997481,PennController,19,0,experimental-trials,NULL,Controller-DashedSentence,DashedSentence,7,to,1698332141631,368,false,Which citizens will lead the people to the promised land?,Any addtional parameters were appended as additional columns
1698332217,f9aa9cc777483e0aac4eaa748c997481,PennController,19,0,experimental-trials,NULL,Controller-DashedSentence,DashedSentence,8,the,1698332141631,328,false,Which citizens will lead the people to the promised land?,Any addtional parameters were appended as additional columns
1698332217,f9aa9cc777483e0aac4eaa748c997481,PennController,19,0,experimental-trials,NULL,Controller-DashedSentence,DashedSentence,9,promised,1698332141631,365,false,Which citizens will lead the people to the promised land?,Any addtional parameters were appended as additional columns
1698332217,f9aa9cc777483e0aac4eaa748c997481,PennController,19,0,experimental-trials,NULL,Controller-DashedSentence,DashedSentence,10,land?,1698332141631,394,false,Which citizens will lead the people to the promised land?,Any addtional parameters were appended as additional columns
# 13. Comments.
1698332217,f9aa9cc777483e0aac4eaa748c997481,PennController,19,0,experimental-trials,NULL,Scale,exeval3,Choice,3,1698332143770,NULL
1698332217,f9aa9cc777483e0aac4eaa748c997481,PennController,19,0,experimental-trials,NULL,Button,Continue2,Click,Click,1698332144866,NULL
1698332217,f9aa9cc777483e0aac4eaa748c997481,PennController,19,0,experimental-trials,NULL,PennController,19,_Trial_,End,1698332144866,NULL
1698332217,f9aa9cc777483e0aac4eaa748c997481,PennController,7,0,experimental-trials,NULL,PennController,7,_Trial_,Start,1698332144866,NULL
# 13. Reading time.
# 14. Newline?.
# 15. Sentence (or sentence MD5).
# 16. Comments.
1698332217,f9aa9cc777483e0aac4eaa748c997481,PennController,7,0,experimental-trials,NULL,Controller-DashedSentence,DashedSentence,1,The,1698332149135,331,false,The bicycle couldn't stand up because it was two tired.,Any addtional parameters were appended as additional columns
1698332217,f9aa9cc777483e0aac4eaa748c997481,PennController,7,0,experimental-trials,NULL,Controller-DashedSentence,DashedSentence,2,bicycle,1698332149135,316,false,The bicycle couldn't stand up because it was two tired.,Any addtional parameters were appended as additional columns
1698332217,f9aa9cc777483e0aac4eaa748c997481,PennController,7,0,experimental-trials,NULL,Controller-DashedSentence,DashedSentence,3,couldn't,1698332149135,376,false,The bicycle couldn't stand up because it was two tired.,Any addtional parameters were appended as additional columns
1698332217,f9aa9cc777483e0aac4eaa748c997481,PennController,7,0,experimental-trials,NULL,Controller-DashedSentence,DashedSentence,4,stand,1698332149135,388,false,The bicycle couldn't stand up because it was two tired.,Any addtional parameters were appended as additional columns
1698332217,f9aa9cc777483e0aac4eaa748c997481,PennController,7,0,experimental-trials,NULL,Controller-DashedSentence,DashedSentence,5,up,1698332149135,362,false,The bicycle couldn't stand up because it was two tired.,Any addtional parameters were appended as additional columns
1698332217,f9aa9cc777483e0aac4eaa748c997481,PennController,7,0,experimental-trials,NULL,Controller-DashedSentence,DashedSentence,6,because,1698332149135,432,false,The bicycle couldn't stand up because it was two tired.,Any addtional parameters were appended as additional columns
1698332217,f9aa9cc777483e0aac4eaa748c997481,PennController,7,0,experimental-trials,NULL,Controller-DashedSentence,DashedSentence,7,it,1698332149135,366,false,The bicycle couldn't stand up because it was two tired.,Any addtional parameters were appended as additional columns
1698332217,f9aa9cc777483e0aac4eaa748c997481,PennController,7,0,experimental-trials,NULL,Controller-DashedSentence,DashedSentence,8,was,1698332149135,312,false,The bicycle couldn't stand up because it was two tired.,Any addtional parameters were appended as additional columns
1698332217,f9aa9cc777483e0aac4eaa748c997481,PennController,7,0,experimental-trials,NULL,Controller-DashedSentence,DashedSentence,9,two,1698332149135,341,false,The bicycle couldn't stand up because it was two tired.,Any addtional parameters were appended as additional columns
1698332217,f9aa9cc777483e0aac4eaa748c997481,PennController,7,0,experimental-trials,NULL,Controller-DashedSentence,DashedSentence,10,tired.,1698332149135,691,false,The bicycle couldn't stand up because it was two tired.,Any addtional parameters were appended as additional columns
# 13. Comments.
1698332217,f9aa9cc777483e0aac4eaa748c997481,PennController,7,0,experimental-trials,NULL,Scale,exeval3,Choice,1,1698332150186,NULL
1698332217,f9aa9cc777483e0aac4eaa748c997481,PennController,7,0,experimental-trials,NULL,Button,Continue2,Click,Click,1698332150794,NULL
1698332217,f9aa9cc777483e0aac4eaa748c997481,PennController,7,0,experimental-trials,NULL,PennController,7,_Trial_,End,1698332150795,NULL
1698332217,f9aa9cc777483e0aac4eaa748c997481,PennController,15,0,experimental-trials,NULL,PennController,15,_Trial_,Start,1698332150795,NULL
# 13. Reading time.
# 14. Newline?.
# 15. Sentence (or sentence MD5).
# 16. Comments.
1698332217,f9aa9cc777483e0aac4eaa748c997481,PennController,15,0,experimental-trials,NULL,Controller-DashedSentence,DashedSentence,1,Mortal,1698332157681,338,false,Mortal enemies have very little in relation and it's scary that they'll always fight.,Any addtional parameters were appended as additional columns
1698332217,f9aa9cc777483e0aac4eaa748c997481,PennController,15,0,experimental-trials,NULL,Controller-DashedSentence,DashedSentence,2,enemies,1698332157681,391,false,Mortal enemies have very little in relation and it's scary that they'll always fight.,Any addtional parameters were appended as additional columns
